Thumb,Index,Middle,Ring,Pinky,AccelX,AccelY,AccelZ,GyroX,GyroY,GyroZ,Letter
975,0,0,0,0,8.38,-0.24,-5.14,-0.27,-0.54,0.30,-30
972,0,0,0,0,18.39,-3.24,-3.32,0.02,-1.10,0.12,-30
1046,0,0,0,0,7.97,-2.56,-1.62,-0.02,-0.04,0.03,-30
1081,0,0,0,0,9.77,-2.84,-0.72,-0.08,0.04,0.05,-30
1083,0,0,0,0,9.63,-2.82,-1.06,-0.12,0.06,0.01,-30
1078,0,0,0,0,9.64,-2.88,-0.56,-0.06,-0.00,-0.04,-30
1066,0,0,0,0,9.58,-2.76,-0.97,0.00,-0.09,-0.06,-30
1071,0,0,0,0,9.68,-2.69,-1.15,-0.01,-0.05,-0.08,-30
1079,0,0,0,0,9.59,-2.56,-1.07,-0.05,-0.07,-0.00,-30
1064,0,0,0,0,9.64,-2.76,-1.53,-0.15,-0.06,-0.03,-30
1095,0,0,0,0,9.63,-2.46,-1.56,-0.13,0.05,-0.02,-30
1051,0,0,0,0,9.61,-2.67,-1.50,-0.13,-0.10,0.00,-30
1046,0,0,0,0,9.62,-2.63,-1.29,-0.09,0.03,-0.01,-30
1058,0,0,0,0,9.61,-2.44,-1.34,-0.07,-0.01,-0.01,-30
1020,0,0,0,0,9.56,-2.51,-1.36,-0.10,-0.04,0.03,-30
1062,0,0,0,0,9.96,-2.76,-1.07,0.09,-0.03,0.03,-30
1054,0,0,0,0,9.49,-3.14,-0.17,0.30,0.13,0.03,-30
1072,0,0,0,0,9.61,-2.72,-0.64,0.49,-0.15,-0.16,-30
1060,0,0,0,0,9.47,-2.64,-2.03,0.35,-0.16,-0.11,-30
1093,0,0,0,0,9.10,-3.17,-2.23,0.29,0.26,-0.03,-30
1088,0,0,0,0,9.55,-3.06,-1.35,-0.07,0.35,0.05,-30
1102,0,0,0,0,9.68,-3.28,-0.23,-0.43,0.07,0.17,-30
1061,0,0,0,0,9.76,-3.52,-1.04,-0.27,-0.08,-0.05,-30
1058,0,0,0,0,9.21,-3.27,-1.11,-0.04,0.10,-0.19,-30
1076,0,0,0,0,9.18,-1.76,-1.06,-0.07,0.01,0.02,-30
1041,0,0,0,0,10.09,-2.96,-0.28,-0.22,0.18,0.14,-30
1043,0,0,0,0,9.73,-3.59,-0.07,-0.14,0.05,0.04,-30
969,0,0,0,0,9.58,-2.71,-1.10,0.03,-0.12,-0.06,-30
1008,0,0,0,0,9.64,-2.95,-1.04,0.08,-0.07,-0.04,-30
965,0,0,0,0,9.68,-2.73,-1.10,0.11,0.04,-0.03,-30
1008,0,0,0,0,9.65,-2.70,-1.02,0.01,0.05,-0.02,-30
1004,0,0,0,0,9.40,-3.11,-1.43,0.02,0.08,0.01,-30
990,0,0,0,0,9.65,-3.04,-0.44,0.00,0.40,-0.03,-30
989,0,0,0,0,9.99,-2.86,0.52,-0.06,0.20,0.18,-30
994,0,0,0,0,9.71,-4.11,1.40,-0.20,-0.02,0.02,-30
995,0,0,0,0,9.62,-3.64,0.22,-0.01,-0.25,-0.15,-30
1045,0,0,0,0,9.49,-2.68,-0.54,0.01,-0.27,-0.25,-30
1073,0,0,0,0,10.14,-2.68,0.48,-0.08,0.13,-0.18,-30
1087,0,0,0,0,9.95,-2.69,0.12,-0.19,-0.07,-0.06,-30
1072,0,0,0,0,9.86,-2.40,0.14,0.01,-0.04,-0.19,-30
1066,0,0,0,0,9.74,-1.91,0.04,-0.09,0.03,-0.18,-30
1079,0,0,0,0,9.96,-2.21,-0.54,-0.13,-0.06,-0.05,-30
1043,0,0,0,0,9.90,-2.38,0.01,0.10,-0.03,-0.06,-30
1079,0,0,0,0,9.83,-1.73,0.23,0.00,0.01,-0.09,-30
1091,0,0,0,0,10.06,-2.17,0.61,0.03,0.03,0.09,-30
1042,0,0,0,0,9.88,-2.48,0.26,0.48,-0.11,-0.01,-30
1065,0,0,0,0,9.55,-2.74,-0.97,0.12,-0.39,-0.01,-30
1059,0,0,0,0,9.81,-2.43,-0.54,-0.18,0.19,-0.08,-30
1014,0,0,0,0,9.68,-2.02,0.50,0.11,0.17,0.03,-30
1029,0,0,0,0,10.09,-1.85,0.72,0.35,0.02,-0.12,-30
1014,0,0,0,0,9.74,-2.22,-0.09,-0.27,-0.09,-0.02,-30
1015,0,0,0,0,9.85,-2.44,-0.15,-0.11,-0.02,-0.06,-30
1030,0,0,0,0,9.79,-2.58,-0.40,0.08,-0.11,-0.02,-30
1008,0,0,0,0,9.69,-2.19,-1.02,0.27,-0.11,-0.02,-30
987,0,0,0,0,9.92,-2.20,-0.59,-0.02,-0.02,0.00,-30
1023,0,0,0,0,9.73,-2.54,-0.48,-0.26,0.16,0.13,-30
1056,0,0,0,0,9.82,-2.34,-0.21,-0.15,0.00,-0.08,-30
1088,0,0,0,0,9.87,-1.79,-0.47,-0.06,-0.02,-0.04,-30
1077,0,0,0,0,9.91,-2.02,-0.68,-0.12,-0.01,0.04,-30
1037,0,0,0,0,9.84,-2.14,-0.33,-0.10,0.04,0.02,-30
1012,0,0,0,0,9.91,-2.15,-0.38,-0.09,-0.00,-0.05,-30
1040,0,0,0,0,9.99,-2.24,-0.46,-0.07,-0.02,-0.04,-30
1021,0,0,0,0,9.84,-2.09,-0.37,-0.04,-0.01,-0.04,-30
1028,0,0,0,0,9.69,-2.43,-0.97,-0.19,-0.01,0.03,-30
1050,0,0,0,0,9.86,-1.73,-0.37,-0.08,-0.09,-0.02,-30
1023,0,0,0,0,9.98,-1.75,-0.78,-0.08,-0.00,-0.00,-30
1006,0,0,0,0,9.87,-1.96,-0.53,-0.08,-0.00,0.02,-30
1023,0,0,0,0,9.89,-2.19,-0.79,-0.10,0.00,0.03,-30
1022,0,0,0,0,9.84,-2.09,-0.64,-0.12,0.05,-0.01,-30
1054,0,0,0,0,9.83,-2.20,-0.85,-0.11,-0.05,-0.02,-30
1051,0,0,0,0,9.90,-1.91,-0.53,-0.12,0.03,0.00,-30
991,0,0,0,0,9.87,-1.98,-0.81,-0.09,0.01,-0.01,-30
1008,0,0,0,0,9.85,-2.03,-0.67,-0.10,0.04,0.01,-30
1006,0,0,0,0,9.85,-2.16,-0.60,-0.09,0.02,0.00,-30
982,0,0,0,0,9.82,-2.07,-0.64,-0.11,0.01,-0.02,-30
970,0,0,0,0,9.77,-1.93,-0.71,-0.09,-0.00,-0.02,-30
990,0,0,0,0,9.92,-1.98,-0.61,-0.09,0.01,-0.01,-30
967,0,0,0,0,9.92,-2.01,-0.69,-0.08,0.00,-0.02,-30
912,0,0,0,0,9.84,-1.99,-0.75,-0.09,0.01,-0.02,-30
975,0,0,0,0,9.84,-2.06,-0.71,-0.08,0.01,-0.01,-30
923,0,0,0,0,9.88,-1.99,-0.71,-0.11,0.02,0.01,-30
911,0,0,0,0,9.91,-2.10,-0.69,-0.10,0.02,-0.01,-30
887,0,0,0,0,9.88,-1.95,-0.63,-0.07,0.01,-0.02,-30
912,0,0,0,0,9.84,-2.02,-0.79,-0.11,0.01,-0.00,-30
857,0,0,0,0,9.80,-2.03,-0.71,-0.11,0.01,0.00,-30
825,0,0,0,0,9.90,-2.12,-0.68,-0.10,0.02,-0.01,-30
636,0,0,0,0,9.86,-2.05,-0.65,-0.12,0.02,0.00,-30
510,0,0,0,0,9.85,-1.85,-0.69,-0.13,0.05,0.02,-30
788,0,0,0,0,9.84,-2.18,-0.68,-0.07,0.02,-0.01,-30
784,0,0,0,0,9.87,-2.01,-0.66,-0.09,0.00,-0.02,-30
918,0,0,0,0,9.82,-2.14,-0.79,-0.08,0.01,-0.01,-30
889,0,0,0,0,9.79,-1.96,-0.64,-0.10,0.00,0.00,-30
986,0,0,0,0,9.86,-2.13,-0.63,-0.11,0.00,-0.01,-30
941,0,0,0,0,9.85,-2.09,-0.78,-0.10,-0.00,-0.01,-30
918,0,0,0,0,9.86,-2.15,-0.85,-0.10,0.00,-0.01,-30
957,0,0,0,0,9.84,-2.12,-0.68,-0.09,-0.00,0.01,-30
969,0,0,0,0,9.92,-1.98,-0.82,-0.07,0.01,-0.00,-30
1034,0,0,0,0,9.87,-2.06,-0.74,-0.09,0.02,-0.01,-30
1029,0,0,0,0,9.96,-2.06,-0.70,-0.10,0.02,0.01,-30
1022,0,0,0,0,9.90,-1.95,-0.75,-0.10,0.02,-0.00,-30
1035,0,0,0,0,9.81,-2.02,-0.80,-0.10,0.02,-0.01,-30
1018,0,0,0,0,9.90,-2.01,-0.80,-0.09,0.01,-0.00,-30
1017,0,0,0,0,9.79,-1.96,-0.70,-0.10,0.02,-0.02,-30
1034,0,0,0,0,9.78,-2.02,-0.70,-0.09,0.01,-0.01,-30
1021,0,0,0,0,9.86,-2.05,-0.77,-0.11,0.02,0.00,-30
983,0,0,0,0,9.88,-2.05,-0.69,-0.12,0.02,-0.01,-30
1008,0,0,0,0,9.82,-2.11,-0.70,-0.14,0.02,-0.01,-30
1064,0,0,0,0,9.90,-1.86,-0.75,-0.10,-0.00,-0.01,-30
1069,0,0,0,0,9.88,-2.05,-0.74,-0.12,0.02,0.01,-30
1047,0,0,0,0,9.86,-1.99,-0.65,-0.13,0.03,0.00,-30
1071,0,0,0,0,9.91,-2.06,-0.76,-0.10,0.02,-0.01,-30
1063,0,0,0,0,9.81,-2.03,-0.80,-0.10,0.01,-0.01,-30
1053,0,0,0,0,9.83,-2.04,-0.72,-0.10,0.02,-0.01,-30
1070,0,0,0,0,9.82,-2.08,-0.76,-0.08,0.01,-0.01,-30
1067,0,0,0,0,9.84,-1.99,-0.71,-0.09,0.01,-0.01,-30
1036,0,0,0,0,9.87,-1.94,-0.77,-0.10,0.02,-0.01,-30
1011,0,0,0,0,9.80,-2.16,-0.62,-0.15,-0.00,0.02,-30
1045,0,0,0,0,9.85,-2.07,-0.76,-0.06,-0.00,-0.00,-30
1023,0,0,0,0,9.97,-1.87,-0.32,-0.09,0.04,0.02,-30
1083,0,0,0,0,9.81,-2.22,-0.85,-0.12,0.02,-0.06,-30
1086,0,0,0,0,9.90,-1.92,-0.55,-0.07,-0.02,-0.00,-30
937,0,0,0,0,9.88,-1.99,-0.86,-0.11,0.01,-0.01,-30
950,0,0,0,0,9.82,-1.96,-0.67,-0.12,0.03,-0.00,-30
929,0,0,0,0,9.84,-2.02,-0.91,-0.07,0.01,-0.04,-30
947,0,0,0,0,9.84,-2.03,-0.66,-0.09,0.03,-0.01,-30
924,0,0,0,0,9.84,-2.05,-0.85,-0.10,-0.01,-0.01,-30
960,0,0,0,0,9.86,-1.97,-0.85,-0.11,0.01,-0.00,-30
947,0,0,0,0,9.80,-1.99,-0.95,0.06,-0.02,0.03,-30
959,0,0,0,0,9.87,-1.94,-0.68,-0.08,0.03,0.02,-30
964,0,0,0,0,9.81,-2.17,-0.78,-0.12,0.00,0.01,-30
990,0,0,0,0,9.82,-2.14,-0.83,-0.10,0.01,-0.01,-30
994,0,0,0,0,9.79,-2.02,-0.71,-0.11,0.03,-0.02,-30
996,0,0,0,0,9.88,-2.05,-0.83,-0.07,-0.01,-0.00,-30
992,0,0,0,0,9.84,-2.01,-0.72,-0.06,0.01,-0.03,-30
988,0,0,0,0,9.81,-2.14,-0.83,-0.10,-0.03,-0.01,-30
944,0,0,0,0,9.78,-1.98,-0.99,-0.10,-0.00,-0.02,-30
1003,0,0,0,0,9.87,-2.11,-0.77,-0.13,0.04,0.03,-30
1008,0,0,0,0,9.81,-2.30,-0.87,-0.08,-0.00,-0.01,-30
938,0,0,0,0,9.88,-2.36,-0.85,-0.08,-0.00,-0.00,-30
969,0,0,0,0,9.78,-2.04,-0.81,-0.10,0.03,-0.00,-30
945,0,0,0,0,9.92,-2.03,-0.96,-0.15,0.04,0.00,-30
912,0,0,0,0,9.82,-2.26,-0.83,-0.09,0.00,0.00,-30
889,0,0,0,0,9.73,-2.11,-0.65,-0.10,0.01,-0.03,-30
955,0,0,0,0,9.74,-2.06,-0.75,-0.10,-0.00,-0.02,-30
940,0,0,0,0,9.75,-2.16,-1.11,-0.10,-0.01,-0.02,-30
922,0,0,0,0,9.81,-2.04,-0.99,-0.13,0.04,-0.01,-30
903,0,0,0,0,9.81,-2.11,-0.83,-0.11,0.03,-0.01,-30
903,0,0,0,0,9.74,-2.09,-0.94,-0.12,0.01,-0.02,-30
882,0,0,0,0,9.84,-2.08,-0.88,-0.13,0.01,-0.01,-30
880,0,0,0,0,9.87,-2.10,-0.92,-0.07,0.02,-0.01,-30
905,0,0,0,0,9.80,-2.10,-0.36,0.03,0.04,-0.01,-30
976,0,0,0,0,9.97,-2.19,-0.93,0.02,-0.04,-0.06,-30
905,0,0,0,0,9.84,-2.04,-1.29,-0.03,-0.06,-0.04,-30
880,0,0,0,0,9.94,-1.98,-0.41,-0.17,0.03,-0.02,-30
860,0,0,0,0,9.74,-1.78,-1.02,-0.09,-0.02,-0.06,-30
834,0,0,0,0,9.83,-1.92,-0.76,-0.16,0.01,-0.01,-30
842,0,0,0,0,9.82,-2.22,-0.86,-0.09,0.03,0.05,-30
853,0,0,0,0,9.86,-1.95,-0.93,-0.12,0.02,-0.03,-30
785,0,0,0,0,9.93,-2.03,-1.15,-0.06,-0.05,-0.02,-30
802,0,0,0,0,9.81,-1.94,-0.94,-0.12,0.09,0.03,-30
834,0,0,0,0,9.79,-2.10,-0.52,-0.10,0.05,0.04,-30
853,0,0,0,0,9.89,-2.17,-0.94,-0.10,-0.04,-0.02,-30
816,0,0,0,0,9.78,-2.00,-1.05,-0.08,0.01,-0.04,-30
824,0,0,0,0,9.89,-1.92,-1.06,-0.12,0.02,0.06,-30
838,0,0,0,0,9.74,-2.19,-0.73,-0.14,0.04,0.01,-30
866,0,0,0,0,9.85,-2.00,-0.95,-0.11,-0.01,0.02,-30
813,0,0,0,0,9.75,-2.04,-0.82,-0.10,0.04,0.03,-30
795,0,0,0,0,9.65,-2.34,-1.19,-0.06,-0.04,-0.02,-30
777,0,0,0,0,9.81,-1.97,-1.09,-0.10,0.05,-0.05,-30
805,0,0,0,0,9.82,-2.00,-0.71,-0.11,0.01,0.03,-30
723,0,0,0,0,9.80,-2.23,-0.99,-0.03,-0.02,-0.03,-30
815,0,0,0,0,9.90,-2.05,-1.01,-0.13,0.03,-0.01,-30
874,0,0,0,0,9.73,-2.10,-0.95,-0.09,0.01,0.01,-30
836,0,0,0,0,9.82,-2.08,-0.97,-0.11,-0.01,0.01,-30
826,0,0,0,0,9.80,-2.04,-1.00,-0.11,0.00,-0.00,-30
826,0,0,0,0,9.86,-2.09,-1.11,-0.13,0.00,0.03,-30
803,0,0,0,0,9.73,-2.14,-0.97,-0.07,-0.00,-0.00,-30
812,0,0,0,0,9.70,-2.25,-1.14,-0.12,-0.01,0.02,-30
809,0,0,0,0,9.73,-2.26,-1.14,-0.11,0.01,0.00,-30
818,0,0,0,0,9.77,-2.25,-1.02,-0.11,0.03,0.00,-30
865,0,0,0,0,9.76,-2.11,-1.17,-0.08,-0.01,-0.00,-30
861,0,0,0,0,9.75,-2.14,-1.08,-0.10,0.02,-0.02,-30
811,0,0,0,0,9.74,-2.17,-1.13,-0.10,0.01,-0.02,-30
832,0,0,0,0,9.80,-2.23,-0.94,-0.08,0.02,-0.00,-30
846,0,0,0,0,9.74,-2.16,-1.11,-0.08,0.01,-0.01,-30
862,0,0,0,0,9.76,-2.19,-1.13,-0.11,0.01,-0.01,-30
857,0,0,0,0,9.68,-2.24,-1.03,-0.11,0.02,-0.00,-30
848,0,0,0,0,9.71,-2.13,-1.07,-0.12,0.01,-0.00,-30
816,0,0,0,0,9.69,-2.21,-1.01,-0.12,0.02,-0.01,-30
784,0,0,0,0,9.80,-2.19,-1.12,-0.11,0.01,-0.01,-30
789,0,0,0,0,9.76,-2.13,-1.08,-0.09,0.01,-0.00,-30
618,0,0,0,0,9.69,-2.23,-1.10,-0.11,0.02,-0.02,-30
630,0,0,0,0,9.75,-2.19,-1.12,-0.11,0.01,-0.00,-30
662,0,0,0,0,9.76,-2.29,-1.15,-0.08,-0.02,0.00,-30
726,0,0,0,0,9.77,-1.87,-0.77,-0.11,0.08,0.01,-30
738,0,0,0,0,9.78,-2.03,-0.94,-0.10,-0.01,0.03,-30
711,0,0,0,0,9.77,-2.38,-1.22,-0.07,-0.00,0.00,-30
704,0,0,0,0,9.75,-2.20,-1.09,-0.09,0.05,0.00,-30
717,0,0,0,0,9.77,-2.12,-0.92,-0.11,0.03,0.01,-30
729,0,0,0,0,9.71,-2.15,-1.04,-0.09,-0.03,-0.03,-30
737,0,0,0,0,9.71,-2.13,-1.24,-0.08,0.00,-0.02,-30
702,0,0,0,0,9.80,-2.34,-0.92,-0.08,0.07,0.02,-30
800,0,0,0,0,9.78,-2.28,-0.72,-0.05,-0.02,-0.02,-30
768,0,0,0,0,9.75,-2.30,-1.14,-0.12,-0.03,-0.00,-30
839,0,0,0,0,9.70,-2.37,-1.20,-0.15,-0.00,-0.01,-30
865,0,0,0,0,9.79,-2.21,-1.18,-0.17,0.05,-0.01,-30
874,0,0,0,0,9.79,-2.20,-0.56,-0.13,0.08,0.02,-30
741,0,0,0,0,9.60,-2.14,-1.13,-0.08,-0.02,-0.07,-30
809,0,0,0,0,9.74,-2.30,-0.87,-0.18,0.09,0.05,-30
829,0,0,0,0,9.77,-2.15,-1.07,-0.07,-0.01,-0.03,-30
843,0,0,0,0,9.74,-2.03,-1.03,-0.09,0.02,0.00,-30
786,0,0,0,0,9.80,-2.45,-0.94,-0.12,0.03,0.01,-30
891,0,0,0,0,9.83,-2.22,-0.91,-0.09,0.05,0.00,-30
882,0,0,0,0,9.63,-2.36,-0.79,-0.07,-0.03,0.02,-30
910,0,0,0,0,9.74,-2.23,-1.06,-0.09,0.01,-0.01,-30
886,0,0,0,0,9.73,-2.43,-0.88,-0.09,0.03,0.02,-30
854,0,0,0,0,9.71,-2.21,-0.90,-0.09,0.02,0.00,-30
815,0,0,0,0,9.69,-2.33,-0.81,-0.09,-0.00,-0.02,-30
810,0,0,0,0,9.76,-2.27,-1.17,-0.10,0.02,0.01,-30
825,0,0,0,0,9.69,-2.48,-0.94,-0.16,0.04,0.02,-30
848,0,0,0,0,9.68,-2.35,-0.95,-0.11,0.01,-0.00,-30
891,0,0,0,0,9.75,-2.39,-0.88,-0.10,0.04,0.00,-30
834,0,0,0,0,9.71,-2.45,-0.90,-0.11,0.01,-0.00,-30
880,0,0,0,0,9.77,-2.45,-1.13,-0.09,-0.02,0.00,-30
751,0,0,0,0,9.69,-2.37,-1.13,-0.11,0.02,0.00,-30
646,0,0,0,0,9.66,-2.57,-1.01,-0.09,-0.03,-0.00,-30
693,0,0,0,0,9.77,-2.38,-0.81,-0.10,0.05,0.00,-30
702,0,0,0,0,9.74,-2.36,-1.15,-0.09,0.00,-0.05,-30
763,0,0,0,0,9.63,-2.36,-1.11,-0.12,0.06,0.01,-30
703,0,0,0,0,9.70,-2.60,-0.91,-0.14,0.07,0.03,-30
767,0,0,0,0,9.66,-2.30,-0.84,-0.18,0.05,0.05,-30
691,0,0,0,0,9.68,-2.48,-0.98,-0.15,0.01,0.02,-30
751,0,0,0,0,9.70,-2.50,-1.10,-0.11,0.04,0.02,-30
837,0,0,0,0,9.79,-2.48,-0.97,-0.09,0.04,0.01,-30
957,0,0,0,0,9.63,-2.50,-0.76,-0.08,0.01,-0.03,-30
917,0,0,0,0,9.69,-2.59,-0.99,-0.06,-0.01,-0.04,-30
901,0,0,0,0,9.76,-2.25,-0.99,-0.04,0.04,-0.07,-30
923,0,0,0,0,9.69,-2.34,-1.34,-0.03,-0.02,-0.05,-30
897,0,0,0,0,9.63,-2.61,-0.75,-0.06,0.01,0.00,-30
897,0,0,0,0,9.74,-2.46,-0.83,-0.09,-0.04,-0.06,-30
923,0,0,0,0,9.74,-2.17,-1.01,-0.14,0.01,-0.06,-30
918,0,0,0,0,9.67,-2.09,-0.92,-0.07,-0.04,-0.04,-30
974,0,0,0,0,9.76,-2.24,-1.11,-0.08,0.03,0.01,-30
944,0,0,0,0,9.75,-2.41,-0.70,-0.09,0.00,-0.00,-30
945,0,0,0,0,9.75,-2.34,-1.15,-0.09,-0.04,-0.03,-30
944,0,0,0,0,9.69,-2.36,-0.94,-0.15,-0.02,-0.01,-30
917,0,0,0,0,9.79,-1.82,-1.23,-0.05,0.08,-0.02,-30
902,0,0,0,0,9.64,-2.66,-1.22,-0.12,-0.02,-0.01,-30
923,0,0,0,0,9.81,-2.37,-1.07,-0.08,0.01,-0.09,-30
918,0,0,0,0,9.71,-2.18,-1.11,-0.09,-0.03,0.00,-30
925,0,0,0,0,9.73,-2.15,-0.98,-0.09,0.03,0.01,-30
925,0,0,0,0,9.74,-2.37,-1.02,-0.11,0.01,0.02,-30
960,0,0,0,0,9.73,-2.14,-1.02,-0.10,0.01,-0.01,-30
802,0,0,0,0,9.72,-2.28,-1.19,-0.10,-0.01,0.00,-30
858,0,0,0,0,9.72,-2.26,-1.12,-0.12,0.04,0.01,-30
757,0,0,0,0,9.70,-2.26,-1.07,-0.11,-0.00,-0.01,-30
739,0,0,0,0,9.68,-2.23,-1.24,-0.10,0.01,-0.02,-30
711,0,0,0,0,9.72,-2.25,-1.13,-0.10,0.02,-0.01,-30
733,0,0,0,0,9.74,-2.21,-1.10,-0.09,0.03,-0.01,-30
720,0,0,0,0,9.74,-2.32,-1.12,-0.10,-0.01,-0.01,-30
741,0,0,0,0,9.79,-2.21,-1.14,-0.10,0.02,-0.00,-30
744,0,0,0,0,9.73,-2.25,-1.10,-0.10,0.00,0.00,-30
688,0,0,0,0,9.75,-2.28,-1.12,-0.10,0.02,-0.01,-30
701,0,0,0,0,9.73,-2.12,-1.22,-0.07,0.01,-0.01,-30
688,0,0,0,0,9.75,-2.24,-1.04,-0.13,0.03,-0.01,-30
704,0,0,0,0,9.74,-2.26,-1.00,-0.13,0.03,-0.00,-30
743,0,0,0,0,9.70,-2.31,-1.07,-0.11,0.01,0.00,-30
707,0,0,0,0,9.72,-2.27,-0.99,-0.08,0.00,-0.02,-30
769,0,0,0,0,9.70,-2.28,-1.05,-0.10,0.01,-0.00,-30
746,0,0,0,0,9.70,-2.15,-1.08,-0.10,0.01,-0.01,-30
729,0,0,0,0,9.79,-2.38,-1.18,-0.12,0.03,0.01,-30
725,0,0,0,0,9.78,-2.34,-1.12,-0.12,0.03,0.01,-30
742,0,0,0,0,9.81,-2.31,-1.04,-0.11,0.01,0.01,-30
701,0,0,0,0,9.59,-2.36,-1.38,-0.18,0.07,-0.01,-30
462,0,0,0,0,9.82,-2.28,-0.99,-0.15,0.06,0.08,-30
343,0,0,0,0,9.62,-2.58,-1.09,-0.23,0.10,0.06,-30
355,0,0,0,0,10.24,-1.54,0.16,-0.26,0.09,0.03,-30
432,0,0,0,0,9.85,-2.26,-0.58,-0.14,0.06,-0.01,-30
441,0,0,0,0,9.67,-2.24,-0.76,-0.05,0.01,-0.03,-30
491,0,0,0,0,9.77,-2.31,-0.89,-0.08,-0.01,-0.01,-30
811,0,0,0,0,9.67,-2.09,-0.88,0.01,-0.06,-0.09,-30
944,0,0,0,0,9.72,-2.38,-0.94,0.00,-0.04,-0.03,-30
862,0,0,0,0,9.84,-2.23,-1.00,-0.08,0.02,-0.00,-30
879,0,0,0,0,9.67,-2.35,-1.04,-0.03,0.01,-0.04,-30
671,0,0,0,0,9.88,-2.32,-0.94,-0.08,-0.01,-0.02,-30
848,0,0,0,0,9.74,-2.03,-0.99,-0.10,0.02,-0.01,-30
899,0,0,0,0,9.77,-2.08,-0.92,-0.11,0.04,-0.02,-30
901,0,0,0,0,9.68,-2.10,-1.49,-0.22,-0.03,0.04,-30
842,0,0,0,0,9.86,-2.33,-0.57,-0.19,0.12,0.07,-30
848,0,0,0,0,9.68,-2.27,-1.35,-0.07,-0.05,-0.06,-30
868,0,0,0,0,9.70,-2.04,-1.35,-0.11,0.03,-0.01,-30
848,0,0,0,0,9.72,-2.27,-1.13,-0.11,0.04,0.05,-30
798,0,0,0,0,9.72,-2.56,-0.83,-0.17,0.07,0.06,-30
784,0,0,0,0,9.68,-2.73,-0.98,-0.11,0.00,-0.00,-30
790,0,0,0,0,9.77,-2.18,-1.20,0.01,-0.08,-0.10,-30
759,0,0,0,0,9.88,-2.13,-1.31,-0.02,-0.05,-0.06,-30
770,0,0,0,0,9.62,-2.32,-1.05,-0.01,0.01,-0.01,-30
735,0,0,0,0,9.69,-2.52,-1.39,-0.03,-0.01,0.01,-30
716,0,0,0,0,9.71,-2.31,-1.34,-0.13,0.04,0.01,-30
701,0,0,0,0,9.64,-2.39,-1.08,-0.09,0.08,-0.00,-30
731,0,0,0,0,9.93,-2.35,-0.98,-0.09,0.03,-0.02,-30
753,0,0,0,0,9.78,-2.46,-0.44,-0.00,0.08,-0.02,-30
784,0,0,0,0,9.57,-2.57,-1.64,-0.01,-0.05,-0.04,-30
788,0,0,0,0,9.78,-2.32,-1.14,-0.04,0.03,-0.02,-30
710,0,0,0,0,9.74,-2.44,-1.00,-0.10,0.03,-0.06,-30
778,0,0,0,0,9.64,-2.41,-1.30,-0.11,-0.06,-0.01,-30
787,0,0,0,0,9.72,-2.26,-1.25,-0.12,0.04,-0.03,-30
763,0,0,0,0,9.77,-2.37,-0.99,-0.10,0.04,-0.00,-30
779,0,0,0,0,9.72,-2.37,-1.11,-0.09,-0.01,-0.03,-30
554,0,0,0,0,9.74,-2.29,-0.99,-0.10,0.03,-0.00,-30
611,0,0,0,0,9.72,-2.32,-0.94,-0.11,0.04,-0.01,-30
579,0,0,0,0,9.71,-2.49,-1.03,-0.11,-0.01,-0.01,-30
595,0,0,0,0,9.82,-2.13,-0.82,-0.11,0.05,-0.00,-30
642,0,0,0,0,9.79,-2.30,-0.75,-0.09,-0.01,-0.01,-30
633,0,0,0,0,9.71,-2.43,-1.15,-0.10,-0.07,-0.03,-30
566,0,0,0,0,9.69,-2.17,-1.34,-0.12,0.01,-0.02,-30
576,0,0,0,0,9.64,-2.51,-0.96,-0.14,0.07,0.03,-30
640,0,0,0,0,9.69,-2.07,-1.03,-0.11,0.03,-0.03,-30
553,0,0,0,0,9.80,-2.44,-1.17,-0.09,-0.02,-0.00,-30
581,0,0,0,0,9.71,-2.26,-1.04,-0.14,0.00,0.01,-30
592,0,0,0,0,9.69,-2.33,-0.96,-0.13,0.05,0.02,-30
591,0,0,0,0,9.74,-2.18,-0.55,-0.10,0.03,0.00,-30
592,0,0,0,0,9.64,-2.19,-1.04,-0.04,-0.10,0.00,-30
621,0,0,0,0,9.66,-2.37,-1.30,-0.11,0.07,0.03,-30
574,0,0,0,0,9.67,-2.39,-0.92,-0.10,0.07,-0.00,-30
565,0,0,0,0,9.70,-2.31,-1.04,-0.09,-0.03,-0.07,-30
528,0,0,0,0,9.73,-2.23,-1.38,-0.12,0.03,-0.02,-30
578,0,0,0,0,9.72,-2.34,-1.07,-0.09,-0.01,0.00,-30
595,0,0,0,0,9.73,-2.13,-1.04,-0.13,0.03,-0.01,-30
570,0,0,0,0,9.67,-2.35,-1.24,-0.14,0.05,0.04,-30
583,0,0,0,0,9.68,-2.49,-0.97,-0.12,0.07,-0.00,-30
575,0,0,0,0,9.69,-2.33,-1.03,-0.09,0.03,0.02,-30
610,0,0,0,0,9.71,-2.41,-0.93,-0.13,0.02,0.00,-30
639,0,0,0,0,9.77,-2.28,-0.94,-0.10,0.02,-0.02,-30
647,0,0,0,0,9.73,-2.18,-0.85,-0.08,0.01,-0.03,-30
654,0,0,0,0,9.76,-2.26,-1.00,-0.08,0.02,-0.01,-30
665,0,0,0,0,9.78,-2.40,-1.05,-0.08,-0.00,-0.00,-30
672,0,0,0,0,9.70,-2.30,-1.05,-0.09,-0.01,-0.03,-30
664,0,0,0,0,9.78,-2.26,-1.17,-0.07,-0.01,-0.01,-30
624,0,0,0,0,9.72,-2.26,-1.09,-0.11,0.01,-0.01,-30
635,0,0,0,0,9.71,-2.25,-0.99,-0.08,0.01,0.00,-30
624,0,0,0,0,9.69,-2.28,-1.07,-0.10,0.00,-0.01,-30
640,0,0,0,0,9.72,-2.26,-1.06,-0.11,0.04,0.00,-30
592,0,0,0,0,9.67,-2.33,-1.04,-0.12,0.02,0.01,-30
582,0,0,0,0,9.74,-2.28,-1.12,-0.11,0.03,-0.01,-30
560,0,0,0,0,9.75,-2.33,-0.98,-0.10,0.01,-0.01,-30
437,0,0,0,0,9.73,-2.31,-1.05,-0.09,0.01,-0.01,-30
505,0,0,0,0,9.92,-2.11,-1.24,-0.09,0.01,-0.01,-30
546,0,0,0,0,9.67,-2.18,-1.22,-0.11,0.02,-0.02,-30
507,0,0,0,0,9.77,-2.17,-1.27,-0.09,0.02,0.01,-30
535,0,0,0,0,9.79,-2.18,-0.87,-0.11,0.04,0.03,-30
528,0,0,0,0,9.61,-2.21,-1.29,-0.10,-0.05,-0.01,-30
493,0,0,0,0,9.76,-2.26,-1.53,-0.17,-0.03,-0.02,-30
511,0,0,0,0,9.83,-2.26,-1.21,0.02,0.15,0.03,-30
558,0,0,0,0,9.72,-2.53,-0.96,-0.10,0.02,-0.00,-30
527,0,0,0,0,9.77,-2.37,-0.88,-0.08,-0.06,-0.02,-30
526,0,0,0,0,9.63,-2.21,-1.20,-0.10,-0.02,-0.01,-30
630,0,0,0,0,9.67,-2.51,-1.35,-0.08,-0.04,0.01,-30
559,0,0,0,0,9.61,-2.50,-1.46,-0.07,0.03,0.03,-30
545,0,0,0,0,9.66,-2.47,-0.88,-0.12,0.02,0.04,-30
643,0,0,0,0,9.72,-2.39,-0.86,-0.14,0.01,0.00,-30
681,0,0,0,0,9.66,-2.45,-1.18,-0.13,0.03,-0.02,-30
667,0,0,0,0,9.83,-2.30,-0.92,-0.14,0.07,-0.02,-30
674,0,0,0,0,9.73,-2.39,-1.11,-0.13,0.02,-0.01,-30
637,0,0,0,0,9.74,-2.33,-1.04,-0.14,0.06,-0.01,-30
588,0,0,0,0,9.63,-2.41,-1.06,-0.15,-0.02,-0.01,-30
589,0,0,0,0,9.76,-2.28,-1.03,-0.19,0.07,0.02,-30
493,0,0,0,0,9.55,-2.55,-1.35,-0.21,-0.02,0.00,-30
507,0,0,0,0,9.70,-2.00,-1.15,-0.20,0.13,-0.01,-30
491,0,0,0,0,9.75,-2.47,-0.88,-0.10,0.00,0.02,-30
497,0,0,0,0,9.87,-2.39,-0.93,-0.07,0.06,0.03,-30
526,0,0,0,0,9.62,-2.53,-1.11,-0.14,0.03,0.02,-30
458,0,0,0,0,9.72,-2.71,-0.81,-0.23,0.13,0.06,-30
276,0,0,0,0,9.71,-2.53,-0.76,-0.16,0.07,0.03,-30
334,0,0,0,0,9.69,-2.61,-0.72,-0.08,0.04,-0.01,-30
415,0,0,0,0,9.74,-2.56,-0.74,-0.06,0.02,0.00,-30
576,0,0,0,0,9.70,-2.32,-0.59,-0.04,-0.02,-0.12,-30
784,0,0,0,0,9.94,-2.44,-0.79,-0.02,0.02,-0.07,-30
736,0,0,0,0,9.68,-2.26,-0.63,-0.08,-0.02,-0.06,-30
721,0,0,0,0,9.92,-2.50,-0.76,0.07,-0.03,-0.09,-30
798,0,0,0,0,9.86,-2.33,-0.90,0.08,0.02,-0.14,-30
912,0,0,0,0,9.94,-2.02,-0.69,-0.04,0.00,0.00,-30
913,0,0,0,0,9.81,-2.10,-0.93,-0.08,0.02,-0.02,-30
916,0,0,0,0,9.81,-2.09,-0.77,-0.09,0.03,0.01,-30
915,0,0,0,0,9.82,-2.29,-0.81,-0.06,0.01,-0.01,-30
912,0,0,0,0,9.81,-2.24,-0.79,-0.10,-0.03,0.02,-30
821,0,0,0,0,9.77,-2.18,-0.72,-0.07,-0.01,-0.04,-30
803,0,0,0,0,9.78,-2.34,-0.80,-0.10,-0.01,-0.02,-30
816,0,0,0,0,9.84,-2.09,-0.57,-0.13,0.00,0.01,-30
846,0,0,0,0,9.81,-2.00,-0.94,-0.10,0.05,-0.02,-30
803,0,0,0,0,9.78,-2.40,-0.77,-0.10,-0.01,-0.01,-30
837,0,0,0,0,9.71,-2.18,-0.75,-0.09,0.01,-0.00,-30
781,0,0,0,0,9.85,-2.15,-0.89,-0.09,0.00,-0.01,-30
787,0,0,0,0,9.78,-2.31,-1.04,-0.08,-0.00,-0.05,-30
833,0,0,0,0,9.82,-2.12,-1.00,-0.08,0.03,-0.04,-30
724,0,0,0,0,9.84,-2.00,-0.67,-0.11,0.01,-0.00,-30
763,0,0,0,0,9.75,-2.21,-1.01,-0.08,-0.05,-0.01,-30
562,0,0,0,0,9.87,-2.02,-0.86,-0.06,0.04,-0.02,-30
562,0,0,0,0,9.87,-2.03,-0.72,-0.03,0.02,-0.04,-30
524,0,0,0,0,9.79,-2.18,-0.94,-0.02,-0.05,-0.01,-30
554,0,0,0,0,9.73,-2.28,-1.17,-0.15,0.06,0.02,-30
553,0,0,0,0,9.81,-2.17,-0.95,-0.17,0.09,0.00,-30
527,0,0,0,0,9.71,-2.29,-1.00,-0.15,0.04,0.01,-30
606,0,0,0,0,9.81,-2.21,-0.80,-0.17,0.06,-0.00,-30
638,0,0,0,0,9.76,-2.22,-0.95,-0.18,0.05,0.01,-30
559,0,0,0,0,9.86,-2.27,-1.02,-0.25,0.02,-0.01,-30
574,0,0,0,0,9.60,-2.44,-1.50,-0.30,0.07,0.02,-30
596,0,0,0,0,9.79,-2.16,-0.53,-0.45,0.27,0.17,-30
510,0,0,0,0,9.74,-2.42,0.18,-0.15,-0.12,0.06,-30
651,0,0,0,0,9.89,-2.42,-0.27,-0.13,0.03,0.03,-30
593,0,0,0,0,9.80,-2.38,-0.36,-0.06,0.09,-0.02,-30
386,0,0,0,0,9.83,-2.43,-0.44,-0.08,-0.06,-0.02,-30
410,0,0,0,0,9.75,-2.44,-0.63,-0.05,0.02,0.04,-30
397,0,0,0,0,9.81,-2.61,-0.36,-0.11,0.04,0.02,-30
448,0,0,0,0,9.81,-2.51,-0.33,-0.11,0.06,0.03,-30
483,0,0,0,0,9.80,-2.57,-0.25,-0.09,-0.03,-0.01,-30
519,0,0,0,0,9.65,-2.59,-0.45,-0.12,-0.02,-0.01,-30
565,0,0,0,0,9.79,-2.49,-0.64,-0.10,0.03,-0.03,-30
494,0,0,0,0,9.79,-2.60,-0.61,-0.11,0.08,0.00,-30
551,0,0,0,0,9.77,-2.65,-0.05,-0.04,0.08,0.04,-30
493,0,0,0,0,9.71,-2.78,-0.68,-0.06,-0.06,-0.07,-30
586,0,0,0,0,9.88,-2.68,-0.05,-0.12,0.02,0.09,-30
505,0,0,0,0,9.73,-2.50,-0.43,-0.07,-0.06,-0.12,-30
523,0,0,0,0,9.88,-2.38,-0.78,-0.11,0.04,-0.03,-30
573,0,0,0,0,9.81,-2.63,-0.31,-0.10,-0.03,-0.02,-30
578,0,0,0,0,9.80,-2.40,-0.83,-0.10,-0.04,-0.05,-30
577,0,0,0,0,9.82,-2.21,-0.59,-0.08,0.00,0.00,-30
546,0,0,0,0,9.75,-2.64,-0.73,-0.07,0.04,-0.01,-30
481,0,0,0,0,9.82,-2.27,-0.24,-0.05,0.00,-0.05,-30
587,0,0,0,0,9.71,-2.48,-0.70,-0.04,-0.06,-0.01,-30
610,0,0,0,0,9.74,-2.43,-0.81,-0.05,0.01,-0.01,-30
597,0,0,0,0,9.78,-2.47,-0.84,-0.10,0.01,0.01,-30
603,0,0,0,0,9.72,-2.51,-0.59,-0.12,0.03,0.00,-30
607,0,0,0,0,9.82,-2.32,-0.55,-0.10,-0.01,-0.02,-30
562,0,0,0,0,9.71,-2.43,-0.73,-0.10,0.01,0.01,-30
571,0,0,0,0,9.81,-2.51,-0.70,-0.10,0.01,0.01,-30
558,0,0,0,0,9.63,-2.57,-0.72,-0.11,-0.01,-0.05,-30
570,0,0,0,0,9.77,-2.27,-0.78,-0.11,-0.01,-0.05,-30
576,0,0,0,0,9.76,-2.31,-0.96,-0.12,0.03,0.01,-30
637,0,0,0,0,9.77,-2.42,-0.58,-0.11,0.01,-0.00,-30
653,0,0,0,0,9.82,-2.36,-0.59,-0.09,-0.01,-0.02,-30
657,0,0,0,0,9.74,-2.53,-0.79,-0.09,-0.03,-0.00,-30
631,0,0,0,0,9.80,-2.36,-0.63,-0.07,-0.01,-0.02,-30
606,0,0,0,0,9.79,-2.37,-0.77,-0.08,-0.04,-0.05,-30
573,0,0,0,0,9.74,-2.28,-1.03,-0.07,-0.02,-0.02,-30
566,0,0,0,0,9.77,-2.48,-0.85,-0.11,0.01,0.01,-30
526,0,0,0,0,9.79,-2.28,-0.82,-0.11,0.04,-0.02,-30
569,0,0,0,0,9.81,-2.41,-0.65,-0.13,0.06,0.04,-30
611,0,0,0,0,9.80,-2.53,-0.74,-0.11,0.03,0.02,-30
622,0,0,0,0,9.69,-2.32,-0.78,-0.09,-0.03,-0.02,-30
650,0,0,0,0,9.76,-2.31,-0.98,-0.08,0.01,0.01,-30
566,0,0,0,0,9.79,-2.31,-0.73,-0.09,0.08,0.04,-30
816,0,0,0,0,9.74,-2.66,-0.54,-0.17,0.07,0.04,-30
817,0,0,0,0,9.75,-2.55,-0.53,-0.15,-0.00,-0.01,-30
881,0,0,0,0,9.69,-2.58,-0.79,-0.14,-0.00,-0.01,-30
925,0,0,0,0,9.70,-2.45,-0.54,-0.13,0.08,-0.04,-30
944,0,0,0,0,9.70,-2.56,-0.64,-0.15,-0.01,-0.03,-30
492,0,0,0,0,9.70,-2.32,-1.11,-0.35,0.01,0.00,-30
545,0,0,0,0,9.84,-2.24,-0.84,-0.21,0.06,0.06,-30
576,0,0,0,0,9.80,-2.55,-0.88,-0.35,0.10,0.07,-30
558,0,0,0,0,9.80,-2.73,-0.46,-0.28,0.14,0.02,-30
526,0,0,0,0,9.77,-2.47,-0.35,-0.24,0.04,-0.03,-30
619,0,0,0,0,9.86,-2.13,-0.38,-0.12,0.01,0.00,-30
639,0,0,0,0,9.83,-2.22,-0.58,0.02,0.01,0.02,-30
646,0,0,0,0,9.88,-2.44,-0.09,0.16,0.05,-0.03,-30
659,0,0,0,0,9.90,-2.44,0.07,0.21,-0.02,-0.08,-30
547,0,0,0,0,9.72,-2.35,-0.23,0.21,-0.11,-0.05,-30
622,0,0,0,0,9.66,-2.69,-1.35,0.21,-0.19,-0.06,-30
623,0,0,0,0,9.66,-2.47,-0.81,-0.11,-0.02,0.10,-30
641,0,0,0,0,9.57,-3.10,-0.97,-0.23,0.04,0.02,-30
648,0,0,0,0,9.66,-2.66,-0.75,-0.21,0.06,0.00,-30
628,0,0,0,0,9.65,-2.70,-0.56,-0.15,0.02,0.01,-30
607,0,0,0,0,9.66,-2.75,-0.72,-0.07,-0.02,-0.02,-30
656,0,0,0,0,9.66,-2.76,-1.04,-0.11,-0.01,-0.00,-30
579,0,0,0,0,9.61,-2.89,-1.11,-0.11,-0.01,0.01,-30
651,0,0,0,0,9.67,-2.80,-0.98,-0.10,-0.02,-0.01,-30
605,0,0,0,0,9.61,-2.68,-1.02,-0.19,0.03,-0.01,-30
597,0,0,0,0,9.61,-2.74,-0.86,-0.10,0.03,-0.02,-30
567,0,0,0,0,9.73,-2.64,-0.85,-0.10,-0.00,-0.01,-30
642,0,0,0,0,9.72,-2.73,-0.76,-0.14,0.02,-0.02,-30
630,0,0,0,0,9.57,-2.98,-0.94,-0.11,-0.02,0.00,-30
624,0,0,0,0,9.61,-2.81,-1.26,-0.09,0.05,0.06,-30
619,0,0,0,0,9.63,-2.51,-0.91,-0.09,-0.02,0.01,-30
638,0,0,0,0,9.65,-2.59,-0.79,-0.11,0.04,-0.00,-30
614,0,0,0,0,9.66,-2.75,-1.02,-0.09,0.01,-0.04,-30
615,0,0,0,0,9.63,-2.54,-0.90,-0.10,0.02,0.00,-30
624,0,0,0,0,9.69,-2.64,-0.79,-0.11,0.01,-0.03,-30
663,0,0,0,0,9.66,-2.78,-0.92,-0.10,-0.01,-0.01,-30
656,0,0,0,0,9.72,-2.70,-0.90,-0.08,0.01,-0.01,-30
567,0,0,0,0,9.55,-2.53,-0.98,-0.10,0.01,-0.00,-30
589,0,0,0,0,9.65,-2.67,-0.97,-0.10,0.02,-0.00,-30
615,0,0,0,0,9.62,-2.71,-1.03,-0.10,-0.00,-0.01,-30
609,0,0,0,0,9.68,-2.66,-0.91,-0.11,0.03,-0.01,-30
565,0,0,0,0,9.71,-2.69,-1.01,-0.10,0.00,-0.01,-30
581,0,0,0,0,9.69,-2.68,-1.08,-0.11,0.04,-0.00,-30
528,0,0,0,0,9.66,-2.67,-0.94,-0.09,0.01,-0.01,-30
516,0,0,0,0,9.69,-2.63,-0.97,-0.11,0.03,0.00,-30
573,0,0,0,0,9.65,-2.68,-0.83,-0.10,0.01,-0.00,-30
527,0,0,0,0,9.62,-2.75,-1.03,-0.11,-0.00,-0.01,-30
523,0,0,0,0,9.70,-2.56,-0.85,-0.10,0.04,0.00,-30
554,0,0,0,0,9.63,-2.83,-0.84,-0.11,-0.01,0.00,-30
531,0,0,0,0,9.68,-2.59,-1.16,-0.10,-0.02,-0.05,-30
589,0,0,0,0,9.65,-2.41,-1.03,-0.12,0.03,-0.00,-30
589,0,0,0,0,9.61,-2.74,-1.00,-0.10,0.02,0.01,-30
546,0,0,0,0,9.69,-2.56,-0.92,-0.10,-0.00,-0.02,-30
558,0,0,0,0,9.63,-2.62,-0.99,-0.09,0.03,-0.00,-30
578,0,0,0,0,9.68,-2.55,-0.95,-0.11,0.03,-0.02,-30
575,0,0,0,0,9.66,-2.63,-1.06,-0.11,0.00,0.01,-30
607,0,0,0,0,9.65,-2.71,-1.00,-0.11,0.04,-0.01,-30
594,0,0,0,0,9.61,-2.50,-0.90,-0.11,0.03,0.01,-30
547,0,0,0,0,9.72,-2.64,-1.07,-0.13,0.05,0.02,-30
525,0,0,0,0,9.63,-2.85,-0.98,-0.15,0.04,0.03,-30
448,0,0,0,0,9.66,-2.65,-0.79,-0.14,0.04,0.01,-30
550,0,0,0,0,9.63,-2.61,-1.50,-0.22,-0.04,0.01,-30
476,0,0,0,0,9.62,-2.61,-1.32,-0.24,0.12,0.04,-30
577,0,0,0,0,9.77,-2.63,-0.18,-0.20,0.13,0.04,-30
573,0,0,0,0,9.62,-3.02,-0.30,-0.08,-0.06,-0.02,-30
607,0,0,0,0,9.66,-2.59,-1.12,-0.08,0.00,0.01,-30
539,0,0,0,0,9.74,-2.72,-0.81,-0.11,0.02,-0.01,-30
575,0,0,0,0,9.73,-2.45,-0.85,-0.10,-0.01,-0.02,-30
552,0,0,0,0,9.71,-2.65,-0.99,-0.08,0.03,-0.02,-30
571,0,0,0,0,9.68,-2.66,-0.93,-0.10,0.03,-0.03,-30
545,0,0,0,0,9.63,-2.67,-0.77,-0.10,-0.01,-0.02,-30
478,0,0,0,0,9.66,-2.76,-1.03,-0.08,-0.01,0.01,-30
493,0,0,0,0,9.66,-2.67,-1.13,-0.08,0.02,-0.02,-30
496,0,0,0,0,9.67,-2.54,-1.03,-0.09,0.05,0.00,-30
560,0,0,0,0,9.63,-2.56,-0.89,-0.11,0.02,-0.01,-30
567,0,0,0,0,9.70,-2.58,-0.93,-0.08,0.00,0.02,-30
566,0,0,0,0,9.79,-2.54,-0.77,-0.04,-0.02,-0.00,-30
543,0,0,0,0,9.68,-2.69,-0.83,-0.05,-0.00,-0.00,-30
563,0,0,0,0,9.63,-3.02,-1.12,-0.06,0.04,0.03,-30
572,0,0,0,0,9.70,-2.55,-0.82,-0.09,0.05,-0.04,-30
498,0,0,0,0,9.60,-2.48,-0.94,-0.06,0.10,0.04,-30
538,0,0,0,0,9.59,-3.01,-0.68,-0.11,0.10,0.04,-30
482,0,0,0,0,9.67,-3.04,-0.65,-0.17,0.09,0.06,-30
351,0,0,0,0,9.63,-3.10,-0.14,-0.15,0.03,0.05,-30
368,0,0,0,0,9.61,-3.02,-0.53,-0.08,-0.02,-0.03,-30
720,0,0,0,0,9.61,-2.98,-1.07,0.06,-0.01,-0.08,-30
659,0,0,0,0,9.60,-2.97,-1.07,-0.00,-0.06,-0.05,-30
710,0,0,0,0,9.64,-2.75,-0.98,0.03,0.01,-0.02,-30
666,0,0,0,0,9.62,-2.65,-0.93,-0.06,-0.02,0.01,-30
622,0,0,0,0,9.32,-3.37,-1.12,0.40,-0.15,-0.09,-30
1220,0,0,0,0,9.66,-2.77,-1.68,-0.35,-0.04,-0.04,-30
1168,0,0,0,0,9.81,-2.38,-1.04,-0.26,0.09,0.04,-30
1194,0,0,0,0,9.78,-2.49,-1.14,-0.17,0.04,-0.00,-30
1039,0,0,0,0,9.62,-2.40,-1.59,-0.05,-0.02,0.02,-30
1073,0,0,0,0,9.61,-2.49,-1.15,-0.01,0.03,-0.02,-30
985,0,0,0,0,9.62,-2.53,-1.23,-0.03,-0.00,-0.01,-30
883,0,0,0,0,9.56,-2.54,-1.35,-0.03,-0.04,-0.02,-30
778,0,0,0,0,9.57,-2.68,-1.36,-0.12,0.09,0.03,-30
721,0,0,0,0,9.57,-2.66,-1.58,-0.13,0.03,0.03,-30
634,0,0,0,0,9.71,-2.95,-0.90,-0.21,0.09,0.03,-30
613,0,0,0,0,9.67,-2.36,-1.07,-0.20,0.01,-0.08,-30
634,0,0,0,0,9.81,-2.19,-0.83,-0.17,0.01,-0.03,-30
615,0,0,0,0,9.55,-2.73,-1.39,-0.10,0.07,0.07,-30
623,0,0,0,0,9.59,-2.74,-1.25,-0.03,0.10,-0.03,-30
592,0,0,0,0,9.65,-2.31,-1.12,-0.09,-0.10,-0.03,-30
727,0,0,0,0,9.63,-2.57,-1.11,-0.04,0.12,-0.04,-30
677,0,0,0,0,9.67,-2.36,-1.42,-0.12,-0.11,0.03,-30
675,0,0,0,0,9.68,-2.71,-1.13,-0.07,0.10,-0.04,-30
686,0,0,0,0,9.54,-2.34,-1.50,-0.14,-0.10,0.02,-30
675,0,0,0,0,9.57,-2.74,-1.41,-0.08,0.13,-0.02,-30
704,0,0,0,0,9.45,-2.50,-1.75,-0.10,0.03,0.05,-30
700,0,0,0,0,9.76,-2.53,-0.75,-0.10,0.04,-0.04,-30
695,0,0,0,0,9.47,-2.52,-1.50,-0.04,0.06,0.02,-30
703,0,0,0,0,9.64,-2.51,-1.05,-0.12,-0.05,0.00,-30
717,0,0,0,0,9.61,-2.46,-1.26,-0.15,-0.07,0.04,-30
625,0,0,0,0,9.61,-2.55,-1.70,-0.12,-0.07,0.03,-30
582,0,0,0,0,9.48,-2.66,-1.75,-0.13,0.02,0.03,-30
651,0,0,0,0,9.54,-2.72,-1.46,-0.08,0.07,0.00,-30
624,0,0,0,0,9.70,-2.49,-0.92,-0.10,-0.08,-0.04,-30
588,0,0,0,0,9.54,-2.31,-1.06,-0.14,-0.08,0.01,-30
603,0,0,0,0,9.59,-2.43,-1.32,-0.13,-0.10,0.02,-30
639,0,0,0,0,9.56,-2.58,-1.64,-0.12,-0.03,0.05,-30
625,0,0,0,0,9.45,-2.74,-1.73,-0.09,0.01,0.03,-30
574,0,0,0,0,9.53,-2.85,-1.61,-0.04,0.06,0.05,-30
624,0,0,0,0,9.42,-2.79,-1.36,-0.13,-0.06,0.02,-30
621,0,0,0,0,9.47,-2.53,-1.58,-0.13,-0.04,-0.02,-30
641,0,0,0,0,9.58,-2.45,-1.56,-0.09,-0.00,0.05,-30
347,0,0,0,0,9.53,-2.77,-1.75,-0.07,0.05,0.10,-30
336,0,0,0,0,9.46,-3.09,-1.49,-0.02,-0.01,0.06,-30
315,0,0,0,0,9.38,-3.02,-1.47,-0.10,-0.06,-0.00,-30
443,0,0,0,0,9.56,-2.80,-1.37,-0.11,0.12,0.04,-30
400,0,0,0,0,9.42,-2.90,-0.84,-0.06,-0.07,-0.07,-30
385,0,0,0,0,9.49,-2.98,-1.38,-0.10,0.05,0.03,-30
278,0,0,0,0,9.54,-2.97,-1.06,-0.11,0.07,0.01,-30
291,0,0,0,0,9.49,-3.00,-1.10,-0.12,0.05,-0.01,-30
314,0,0,0,0,9.52,-2.94,-1.12,-0.10,-0.00,-0.01,-30
176,0,0,0,0,9.79,-2.85,-1.06,-0.22,0.05,0.00,-30
206,0,0,0,0,9.53,-2.71,-1.37,-0.02,-0.02,-0.12,-30
834,0,0,0,0,9.72,-2.61,-1.23,0.00,-0.08,-0.13,-30
967,0,0,0,0,9.58,-2.72,-1.49,-0.15,0.02,0.01,-30
1063,0,0,0,0,9.63,-2.68,-1.25,-0.13,0.02,0.00,-30
446,0,0,0,0,9.62,-2.62,-1.36,-0.13,0.01,0.02,-30
80,0,0,0,0,9.47,-2.72,-1.41,-0.24,0.09,0.16,-30
263,0,0,0,0,9.45,-2.87,-1.20,-0.03,-0.00,-0.07,-30
365,0,0,0,0,9.56,-2.91,-1.47,-0.06,0.00,-0.02,-30
345,0,0,0,0,9.57,-2.90,-1.33,-0.08,0.02,-0.00,-30
333,0,0,0,0,9.61,-2.98,-1.37,-0.06,0.01,-0.03,-30
154,0,0,0,0,9.50,-2.84,-1.34,-0.05,-0.04,-0.10,-30
231,0,0,0,0,9.53,-2.77,-1.19,-0.09,-0.01,-0.05,-30
355,0,0,0,0,9.54,-2.55,-1.41,-0.12,0.00,0.02,-30
361,0,0,0,0,9.59,-2.76,-1.39,-0.13,0.03,0.01,-30
350,0,0,0,0,9.55,-2.74,-1.30,-0.10,0.05,0.01,-30
352,0,0,0,0,9.61,-2.80,-1.35,-0.10,0.03,-0.00,-30
342,0,0,0,0,9.61,-2.73,-1.32,-0.10,0.00,-0.01,-30
336,0,0,0,0,9.50,-2.86,-1.30,-0.10,0.02,-0.02,-30
330,0,0,0,0,9.53,-2.71,-1.24,-0.10,0.02,-0.01,-30
298,0,0,0,0,9.65,-2.65,-1.10,-0.15,0.04,0.02,-30
254,0,0,0,0,9.51,-2.68,-1.49,-0.09,0.03,-0.03,-30
149,0,0,0,0,9.63,-2.79,-1.21,-0.12,-0.01,-0.00,-30
158,0,0,0,0,9.56,-2.65,-1.24,-0.09,-0.02,-0.02,-30
178,0,0,0,0,9.57,-2.71,-1.34,-0.05,-0.02,0.02,-30
179,0,0,0,0,9.54,-2.80,-1.45,-0.11,0.00,-0.02,-30
161,0,0,0,0,9.54,-2.63,-1.24,-0.11,0.06,-0.00,-30
105,0,0,0,0,9.67,-2.76,-1.03,-0.12,-0.00,-0.00,-30
64,0,0,0,0,9.48,-2.74,-1.47,-0.08,0.02,0.02,-30
67,0,0,0,0,9.52,-2.94,-1.41,-0.11,0.05,0.01,-30
16,0,0,0,0,9.60,-2.76,-1.15,-0.08,-0.00,-0.02,-30
48,0,0,0,0,9.64,-2.64,-1.21,-0.12,0.05,0.01,-30
67,0,0,0,0,9.58,-2.84,-1.03,-0.11,0.02,0.01,-30
47,0,0,0,0,9.53,-2.78,-1.20,-0.12,-0.01,-0.00,-30
32,0,0,0,0,9.51,-2.84,-1.23,-0.11,0.01,0.00,-30
89,0,0,0,0,9.59,-2.83,-1.12,-0.09,0.03,-0.00,-30
163,0,0,0,0,9.48,-2.62,-1.06,-0.11,-0.03,0.02,-30
336,0,0,0,0,9.49,-2.78,-1.47,0.23,0.01,-0.02,-30
292,0,0,0,0,9.56,-2.90,-0.99,0.19,0.08,0.02,-30
209,0,0,0,0,8.79,-4.54,0.33,2.74,-0.32,-0.06,-30
373,0,0,0,0,9.37,-4.10,1.41,-0.06,0.07,-0.07,-30
358,0,0,0,0,9.44,-3.55,1.33,-0.37,0.00,0.05,-30
208,0,0,0,0,9.32,-3.88,0.65,-0.29,-0.08,0.11,-30
225,0,0,0,0,9.63,-3.80,0.83,-0.20,-0.03,-0.09,-30
226,0,0,0,0,9.31,-4.02,0.54,-0.03,0.00,-0.02,-30
137,0,0,0,0,9.43,-4.04,0.55,-0.01,0.05,0.01,-30
256,0,0,0,0,9.35,-3.90,0.45,-0.10,0.08,-0.07,-30
432,0,0,0,0,9.42,-3.45,0.62,-0.17,-0.05,-0.00,-30
566,0,0,0,0,9.55,-3.86,0.62,-0.29,0.09,-0.16,-30
950,0,0,0,0,9.56,-3.68,0.15,-0.23,-0.06,0.06,-30
831,0,0,0,0,9.77,-3.61,0.59,-0.19,0.07,-0.10,-30
820,0,0,0,0,9.48,-3.85,0.13,-0.12,-0.02,0.04,-30
814,0,0,0,0,9.62,-3.31,0.73,-0.20,-0.01,0.00,-30
596,0,0,0,0,9.40,-3.88,0.23,-0.05,0.08,-0.03,-30
333,0,0,0,0,9.47,-3.85,0.35,-0.02,0.07,-0.03,-30
63,0,0,0,0,9.61,-3.67,0.49,-0.11,0.04,-0.07,-30
0,0,0,0,0,9.61,-3.22,-0.02,-0.37,-0.19,-0.05,-30
0,0,0,0,0,9.85,-3.19,0.37,-0.30,-0.04,-0.13,-30
496,0,0,0,0,9.70,-3.55,0.28,-0.29,0.06,0.04,-30
0,0,0,0,0,9.75,-2.86,-0.20,-0.48,0.26,0.90,-30
131,0,0,0,0,9.12,-4.36,0.16,-0.03,-0.05,0.05,-30
145,0,0,0,0,9.31,-4.05,0.14,0.02,0.04,-0.16,-30
90,0,0,0,0,9.11,-4.11,-0.30,-0.04,0.03,0.02,-30
140,0,0,0,0,9.21,-4.22,-0.25,-0.10,-0.00,0.02,-30
140,0,0,0,0,9.57,-3.92,0.33,-0.11,0.02,-0.04,-30
129,0,0,0,0,9.19,-4.26,-0.15,-0.06,0.04,-0.01,-30
215,0,0,0,0,9.28,-3.94,0.13,-0.14,-0.04,0.05,-30
336,0,0,0,0,9.47,-3.72,0.27,-0.07,-0.03,-0.02,-30
309,0,0,0,0,9.27,-4.23,-0.18,-0.02,0.01,-0.02,-30
263,0,0,0,0,9.27,-4.28,0.13,-0.01,0.05,-0.06,-30
296,0,0,0,0,9.36,-4.08,-0.13,-0.12,-0.02,0.05,-30
375,0,0,0,0,9.33,-4.13,-0.81,-0.16,0.03,-0.02,-30
346,0,0,0,0,9.17,-3.73,-1.05,-0.19,-0.00,0.03,-30
208,0,0,0,0,9.21,-3.99,-0.76,-0.09,-0.00,0.01,-30
271,0,0,0,0,9.19,-3.87,-0.86,-0.09,-0.01,0.00,-30
268,0,0,0,0,9.32,-4.08,-0.68,-0.05,0.08,-0.02,-30
372,0,0,0,0,9.35,-4.01,-0.74,-0.18,-0.02,0.00,-30
510,0,0,0,0,9.04,-4.00,-1.30,-0.19,-0.03,0.02,-30
497,0,0,0,0,9.34,-3.84,-0.75,-0.12,0.08,-0.04,-30
528,0,0,0,0,9.32,-3.73,-0.76,-0.13,0.04,0.04,-30
591,0,0,0,0,9.40,-3.80,-0.48,0.03,-0.01,-0.06,-30
499,0,0,0,0,9.17,-3.87,-0.92,0.05,-0.05,-0.01,-30
582,0,0,0,0,9.05,-4.31,-1.16,-0.03,-0.02,0.01,-30
614,0,0,0,0,9.16,-4.28,-0.85,-0.04,0.07,-0.01,-30
623,0,0,0,0,9.23,-4.28,-0.62,-0.07,-0.03,0.05,-30
635,0,0,0,0,9.15,-4.45,-0.46,-0.39,0.09,-0.10,-30
577,0,0,0,0,9.13,-4.24,-0.86,-0.36,-0.14,-0.11,-30
547,0,0,0,0,9.02,-3.84,-1.44,-0.33,-0.15,-0.03,-30
532,0,0,0,0,9.01,-3.56,-1.83,-0.48,-0.13,0.13,-30
519,0,0,0,0,9.08,-3.90,-1.75,-0.89,0.25,0.37,-30
454,0,0,0,0,9.20,-3.39,-1.37,-0.59,0.16,0.57,-30
450,0,0,0,0,8.42,-4.98,-1.53,-0.32,-0.22,0.59,-30
478,0,0,0,0,8.22,-4.53,-3.00,-0.43,-0.52,0.42,-30
475,0,0,0,0,7.90,-4.24,-2.97,-0.70,-0.34,0.55,-30
419,0,0,0,0,8.41,-5.70,-3.27,-0.41,-0.41,0.76,-30
446,0,0,0,0,7.48,-5.90,-3.75,-2.24,0.08,0.36,-30
401,0,0,0,0,6.87,-1.92,-5.32,-4.23,0.15,0.42,-30
437,0,0,0,0,5.88,-1.68,-6.84,-0.94,-0.22,0.26,-30
475,0,0,0,0,5.97,-2.43,-7.11,-0.85,-0.20,0.35,-30
