Thumb,Index,Middle,Ring,Pinky,AccelX,AccelY,AccelZ,GyroX,GyroY,GyroZ,Letter
246,16,608,0,531,8.54,-4.14,-5.04,-0.16,0.19,-0.27,-29
252,231,570,0,558,9.35,-1.81,-2.75,-0.05,-0.06,0.08,-29
290,245,478,0,464,9.23,-1.16,-3.34,-0.27,0.04,-0.14,-29
279,242,527,0,482,9.51,-1.01,-2.41,0.15,-0.02,-0.11,-29
256,206,506,0,448,9.28,-1.39,-3.12,-0.08,-0.30,0.10,-29
268,208,528,0,431,8.44,-2.06,-4.34,-0.52,-0.21,0.17,-29
255,213,502,0,435,8.52,-2.01,-4.54,-0.44,-0.00,0.12,-29
273,200,461,0,413,8.24,-1.96,-3.85,-0.04,0.13,0.14,-29
258,188,437,0,436,8.76,-1.64,-4.21,-0.15,0.02,-0.11,-29
240,192,409,0,413,8.87,-0.66,-4.48,-0.32,0.24,-0.23,-29
208,187,438,0,399,8.89,-0.67,-3.69,-0.13,0.39,-0.11,-29
254,224,526,0,420,9.19,-1.33,-2.97,-0.04,0.41,-0.09,-29
262,145,428,0,407,9.29,-0.79,-2.91,-0.14,0.15,0.02,-29
242,141,363,30,447,9.31,-1.14,-2.81,-0.13,0.08,0.05,-29
260,133,354,82,473,9.30,-1.51,-2.90,-0.11,-0.03,0.07,-29
274,126,370,208,646,9.45,-1.09,-2.64,-0.11,0.16,-0.01,-29
240,119,383,256,570,9.48,-1.31,-2.54,-0.12,0.01,0.06,-29
194,93,353,253,733,9.26,-1.51,-3.00,-0.05,0.08,-0.06,-29
214,121,311,401,432,9.37,-1.27,-2.91,0.13,-0.01,-0.12,-29
254,101,306,495,511,9.25,-1.41,-3.30,0.08,-0.01,-0.03,-29
218,140,315,439,496,9.28,-1.59,-3.07,-0.02,0.01,0.02,-29
238,118,346,413,543,9.31,-1.61,-2.84,-0.08,0.03,0.00,-29
252,99,373,391,551,9.48,-1.26,-2.45,0.06,-0.02,-0.11,-29
281,98,361,385,539,9.18,-1.30,-3.00,0.07,-0.04,-0.13,-29
288,102,442,269,528,9.19,-1.64,-3.19,0.38,0.16,-0.18,-29
272,111,560,237,523,9.51,-1.18,-2.18,0.05,0.00,-0.04,-29
295,110,594,253,531,9.41,-1.63,-2.73,-0.06,-0.07,0.01,-29
304,208,891,194,481,9.51,-1.12,-2.48,-0.09,0.02,-0.01,-29
289,191,877,192,466,9.54,-1.02,-2.41,-0.08,-0.03,0.02,-29
247,178,910,250,496,9.34,-1.64,-2.79,-0.12,-0.07,0.01,-29
239,195,881,187,523,9.40,-1.22,-2.57,-0.08,0.07,0.03,-29
267,209,871,194,465,9.44,-1.33,-2.57,-0.10,0.01,0.02,-29
272,216,885,119,473,9.41,-1.53,-2.40,-0.00,-0.13,-0.05,-29
287,208,881,179,496,9.22,-1.25,-3.22,-0.14,-0.12,-0.05,-29
288,199,867,170,483,9.20,-1.37,-3.41,-0.12,-0.01,0.01,-29
278,199,829,176,496,9.26,-1.29,-3.09,-0.22,0.07,0.03,-29
272,193,852,166,466,9.35,-1.29,-2.73,-0.27,-0.04,0.07,-29
286,189,752,173,469,9.06,-1.49,-3.43,-0.35,-0.02,0.15,-29
235,152,741,170,454,9.39,-1.54,-2.85,-0.33,0.19,0.15,-29
181,167,710,171,428,9.37,-1.50,-2.59,-0.35,0.11,0.06,-29
285,183,731,159,435,9.50,-1.02,-2.51,-0.25,0.09,-0.02,-29
263,166,752,182,453,9.41,-0.96,-2.66,-0.16,-0.01,0.04,-29
272,167,715,159,430,9.38,-1.30,-2.45,-0.16,0.05,0.00,-29
278,128,702,154,421,9.39,-1.16,-2.75,-0.16,0.03,0.03,-29
283,175,717,166,432,9.47,-1.16,-2.47,-0.09,-0.00,0.02,-29
270,162,707,172,401,9.36,-1.35,-2.70,-0.07,-0.01,-0.03,-29
291,150,671,195,412,9.37,-1.25,-2.89,-0.08,-0.00,-0.01,-29
299,169,672,160,423,9.42,-1.18,-2.72,-0.09,0.04,-0.00,-29
303,128,653,161,406,9.26,-1.26,-2.76,-0.11,-0.01,0.01,-29
291,115,592,162,418,9.25,-1.47,-3.32,-0.17,-0.06,0.05,-29
310,126,609,187,435,9.32,-1.45,-2.95,-0.20,0.12,0.08,-29
293,121,592,181,395,9.46,-1.27,-2.45,-0.12,-0.06,-0.04,-29
302,156,621,159,423,9.34,-1.33,-3.09,-0.10,-0.01,0.01,-29
316,166,627,142,409,9.32,-1.49,-2.84,-0.15,0.09,0.03,-29
304,144,624,162,428,9.54,-1.39,-2.36,-0.11,0.04,-0.02,-29
311,111,624,159,396,9.26,-1.18,-3.14,-0.04,-0.08,-0.02,-29
307,131,618,151,393,9.21,-1.54,-3.13,-0.06,-0.03,0.03,-29
310,98,624,143,400,9.39,-1.47,-3.09,-0.19,0.05,-0.02,-29
292,126,593,170,413,9.43,-1.23,-2.63,-0.17,0.18,0.04,-29
304,112,624,187,439,9.30,-1.47,-3.26,-0.09,-0.02,-0.02,-29
292,117,613,190,426,9.28,-1.59,-2.79,-0.07,-0.11,0.03,-29
316,102,639,203,435,9.15,-1.63,-3.28,-0.08,-0.02,-0.06,-29
286,127,634,207,451,9.42,-1.35,-2.67,-0.13,0.06,0.05,-29
291,94,683,209,426,9.42,-1.30,-2.91,-0.10,0.01,-0.02,-29
272,73,659,178,349,9.35,-1.37,-2.84,-0.10,0.03,0.00,-29
272,99,656,194,350,9.35,-1.37,-2.87,-0.11,0.01,-0.00,-29
282,77,658,197,337,9.38,-1.38,-2.81,-0.09,0.02,0.02,-29
272,88,656,211,377,9.29,-1.39,-2.93,-0.10,0.02,-0.01,-29
261,112,656,199,365,9.31,-1.47,-2.81,-0.11,0.02,0.01,-29
294,119,624,218,400,9.32,-1.45,-2.89,-0.10,0.01,-0.02,-29
272,117,634,210,383,9.35,-1.36,-2.73,-0.12,0.03,0.01,-29
300,107,599,223,401,9.35,-1.38,-2.81,-0.09,0.01,-0.02,-29
309,141,617,211,404,9.24,-1.36,-2.87,-0.10,0.02,-0.01,-29
256,96,587,206,358,9.31,-1.44,-2.82,-0.11,0.00,0.01,-29
293,99,595,198,350,9.35,-1.37,-2.84,-0.13,-0.00,-0.01,-29
304,110,595,209,398,9.31,-1.30,-2.75,-0.11,-0.00,-0.00,-29
289,116,594,208,400,9.21,-1.34,-2.78,-0.10,0.02,-0.01,-29
295,119,590,206,397,9.32,-1.26,-2.90,-0.10,0.02,-0.00,-29
304,106,601,218,413,9.30,-1.30,-2.87,-0.10,0.01,-0.01,-29
321,109,610,208,359,9.24,-1.24,-3.07,-0.12,0.05,0.03,-29
293,115,608,215,363,9.36,-1.33,-2.67,-0.10,0.09,0.02,-29
328,96,618,208,382,9.38,-1.58,-2.86,-0.07,0.01,-0.03,-29
239,64,591,188,383,9.30,-1.10,-2.88,-0.11,0.10,0.04,-29
299,107,592,188,389,9.54,-1.57,-2.25,-0.07,-0.03,0.06,-29
304,112,572,202,375,9.50,-1.79,-2.21,-0.02,-0.13,-0.05,-29
303,163,554,179,402,9.06,-1.49,-3.60,-0.08,0.00,-0.12,-29
324,100,597,195,374,9.40,-1.04,-2.75,-0.18,0.15,0.00,-29
317,127,595,194,410,9.33,-1.58,-2.59,-0.10,0.01,0.06,-29
319,117,592,192,415,9.28,-1.60,-2.82,-0.08,-0.05,-0.01,-29
246,134,599,193,411,9.32,-1.15,-2.81,-0.10,0.04,-0.02,-29
262,113,572,193,410,9.51,-1.26,-2.77,-0.13,0.05,0.03,-29
263,134,564,190,416,9.32,-1.60,-2.64,-0.10,0.01,0.02,-29
251,110,511,175,380,9.36,-1.38,-2.85,-0.11,0.02,-0.01,-29
240,103,545,181,384,9.33,-1.55,-2.80,-0.10,0.01,-0.00,-29
265,121,583,200,393,9.40,-1.43,-2.64,-0.10,-0.00,0.01,-29
253,113,530,190,350,9.40,-1.40,-2.81,-0.12,0.02,0.00,-29
274,102,501,190,325,9.47,-1.38,-2.61,-0.09,-0.02,-0.00,-29
276,99,585,199,336,9.42,-1.47,-2.84,-0.11,0.04,-0.03,-29
299,85,519,204,384,9.34,-1.51,-2.79,-0.09,-0.01,-0.01,-29
284,112,541,199,393,9.32,-1.41,-2.74,-0.10,0.00,-0.02,-29
273,89,530,178,336,9.35,-1.41,-2.83,-0.09,-0.00,0.00,-29
252,95,565,197,353,9.36,-1.34,-2.81,-0.12,0.02,-0.02,-29
265,87,553,201,350,9.35,-1.32,-2.78,-0.10,0.03,-0.01,-29
278,81,560,177,336,9.39,-1.32,-2.72,-0.09,0.01,0.00,-29
246,80,538,154,306,9.33,-1.44,-2.87,-0.13,0.06,-0.03,-29
288,72,528,168,336,9.44,-1.23,-2.64,-0.10,-0.01,0.02,-29
272,78,524,167,342,9.37,-1.43,-2.86,-0.09,0.04,-0.02,-29
273,63,501,177,304,9.36,-1.35,-2.88,-0.08,-0.04,-0.00,-29
302,64,505,163,299,9.26,-1.43,-3.10,-0.10,0.00,-0.03,-29
298,61,487,161,292,9.36,-1.40,-2.80,-0.02,0.06,-0.03,-29
306,58,510,159,297,9.47,-1.14,-2.73,-0.12,-0.00,-0.02,-29
295,69,489,166,304,9.31,-1.39,-2.93,-0.07,0.04,0.01,-29
333,60,455,192,320,9.26,-1.44,-3.11,-0.07,-0.05,-0.02,-29
320,46,450,189,319,9.22,-1.34,-3.11,-0.13,0.08,-0.01,-29
309,50,503,173,330,9.42,-1.32,-2.64,-0.11,0.01,0.02,-29
327,66,505,190,343,9.25,-1.51,-3.15,-0.08,-0.01,-0.03,-29
320,70,496,177,323,9.28,-1.29,-2.89,-0.10,0.04,0.00,-29
335,54,491,174,353,9.24,-1.45,-2.94,-0.11,0.03,-0.01,-29
336,64,494,171,343,9.32,-1.36,-2.67,-0.09,0.01,0.02,-29
320,64,507,176,341,9.23,-1.54,-2.92,-0.09,-0.04,0.02,-29
323,72,469,176,336,9.38,-1.14,-2.81,-0.12,0.06,-0.05,-29
322,62,485,171,325,9.38,-1.35,-2.89,-0.10,-0.00,0.02,-29
324,48,452,153,336,9.25,-1.58,-2.79,-0.06,-0.02,-0.04,-29
297,48,430,159,330,9.26,-1.21,-3.07,-0.07,0.00,-0.03,-29
292,36,435,156,323,9.36,-1.28,-2.89,-0.11,0.01,0.02,-29
304,22,437,142,297,9.28,-1.47,-2.90,-0.13,0.01,0.07,-29
304,50,454,159,305,9.29,-1.25,-2.82,-0.09,0.02,-0.01,-29
304,16,453,139,308,9.22,-1.63,-3.13,-0.11,0.00,-0.00,-29
298,32,417,145,275,9.32,-1.29,-2.93,-0.11,0.03,0.04,-29
304,0,431,138,294,9.30,-1.51,-2.95,-0.11,0.00,0.06,-29
286,4,428,139,293,9.22,-1.70,-3.09,-0.10,0.02,0.01,-29
196,0,340,140,301,9.30,-1.53,-2.98,-0.10,0.02,-0.01,-29
274,14,433,112,271,9.25,-1.51,-2.80,-0.09,0.01,-0.01,-29
302,32,478,120,305,9.20,-1.53,-2.92,-0.08,0.01,-0.01,-29
308,47,465,127,299,9.26,-1.56,-3.13,-0.11,0.02,-0.02,-29
293,54,496,130,277,9.21,-1.55,-2.89,-0.10,0.02,-0.00,-29
316,48,454,134,304,9.21,-1.51,-2.97,-0.09,-0.00,-0.01,-29
310,80,445,138,275,9.19,-1.45,-2.94,-0.09,0.01,-0.00,-29
325,78,447,135,295,9.30,-1.54,-3.14,-0.09,0.01,-0.01,-29
337,65,482,138,304,9.28,-1.56,-3.08,-0.08,0.01,0.01,-29
330,80,451,130,270,9.24,-1.57,-2.99,-0.09,0.02,-0.01,-29
336,49,467,128,268,9.22,-1.56,-3.11,-0.13,-0.01,-0.01,-29
366,41,442,139,259,9.19,-1.56,-3.20,-0.09,-0.00,-0.02,-29
342,55,448,145,267,9.16,-1.62,-3.18,-0.10,0.01,-0.01,-29
352,58,458,142,277,9.16,-1.55,-3.18,-0.12,0.03,-0.02,-29
327,69,426,144,274,9.26,-1.43,-2.97,-0.10,-0.01,-0.02,-29
347,53,422,169,247,9.19,-1.51,-3.21,-0.10,-0.02,-0.01,-29
368,42,403,145,267,9.17,-1.53,-3.20,-0.11,0.01,-0.01,-29
359,48,422,165,300,9.16,-1.52,-3.15,-0.10,0.01,-0.01,-29
348,35,434,167,296,9.20,-1.48,-3.23,-0.08,0.01,-0.01,-29
368,16,432,153,265,9.17,-1.51,-3.20,-0.10,0.01,-0.01,-29
327,1,400,144,294,9.14,-1.46,-3.21,-0.11,0.02,-0.02,-29
353,16,421,160,304,9.12,-1.62,-3.17,-0.11,0.02,0.00,-29
359,6,433,175,304,9.18,-1.58,-3.21,-0.11,0.01,-0.00,-29
350,1,413,176,298,9.19,-1.46,-3.15,-0.10,0.03,-0.01,-29
367,3,421,206,303,9.21,-1.44,-3.32,-0.12,0.03,-0.02,-29
342,22,400,247,290,9.16,-1.51,-3.16,-0.11,0.02,0.00,-29
348,6,398,271,317,9.26,-1.54,-3.09,-0.11,0.01,-0.01,-29
342,16,427,240,272,9.26,-1.48,-3.15,-0.10,-0.00,-0.00,-29
354,0,434,290,246,9.12,-1.55,-3.21,-0.11,0.02,0.00,-29
333,5,399,294,318,9.21,-1.30,-3.14,-0.11,0.03,0.00,-29
449,11,429,322,299,9.11,-1.78,-3.29,-0.19,-0.01,-0.00,-29
315,16,356,531,291,9.15,-1.70,-3.28,-0.13,0.02,0.00,-29
336,0,304,585,286,9.17,-1.41,-3.11,-0.08,0.02,-0.02,-29
329,0,323,638,255,9.17,-1.44,-3.20,-0.10,0.03,-0.00,-29
322,14,336,662,261,9.28,-1.43,-3.16,-0.11,0.01,-0.01,-29
340,3,382,629,304,9.18,-1.45,-3.27,-0.12,0.03,-0.01,-29
353,1,418,582,304,9.20,-1.46,-3.17,-0.09,0.02,-0.01,-29
351,3,384,468,295,9.22,-1.35,-3.05,-0.09,0.02,-0.00,-29
351,0,347,368,234,9.15,-1.50,-3.25,-0.07,0.02,-0.02,-29
343,0,304,225,261,9.19,-1.55,-3.17,-0.10,0.04,-0.02,-29
341,7,226,0,210,9.21,-1.50,-3.26,-0.10,0.05,0.00,-29
309,7,270,0,234,9.25,-1.47,-3.22,-0.09,0.01,-0.00,-29
331,2,254,0,265,9.22,-1.48,-3.12,-0.12,0.03,0.00,-29
350,5,237,0,178,9.15,-1.49,-3.18,-0.11,0.01,-0.02,-29
369,4,285,0,210,9.17,-1.40,-2.94,-0.08,-0.01,-0.01,-29
345,13,315,17,119,9.23,-1.44,-3.07,-0.10,0.01,-0.00,-29
349,10,321,46,94,9.20,-1.50,-3.05,-0.09,0.01,-0.01,-29
364,22,227,0,67,9.21,-1.51,-3.19,-0.11,0.01,-0.00,-29
386,7,234,0,84,9.17,-1.56,-3.14,-0.11,0.01,-0.00,-29
343,293,279,0,100,9.22,-1.49,-3.14,-0.10,0.05,-0.01,-29
283,487,287,0,132,9.37,-1.59,-3.19,-0.11,0.06,-0.01,-29
294,597,240,0,142,9.39,-1.46,-3.11,-0.09,0.05,-0.01,-29
367,488,290,0,146,9.14,-1.48,-3.16,-0.11,0.01,-0.00,-29
356,519,305,0,124,9.17,-1.54,-2.92,-0.11,0.00,-0.00,-29
370,482,336,0,128,9.23,-1.44,-3.15,-0.11,0.02,-0.01,-29
404,481,331,0,157,9.20,-1.50,-3.01,-0.09,0.01,0.00,-29
367,445,315,68,151,9.23,-1.63,-3.07,-0.10,0.02,0.00,-29
347,361,321,77,166,9.29,-1.47,-3.18,-0.10,0.01,-0.01,-29
353,394,317,80,154,9.20,-1.47,-3.18,-0.10,0.03,-0.01,-29
350,191,330,80,147,9.23,-1.41,-3.12,-0.11,0.01,-0.00,-29
313,0,339,100,159,9.17,-1.47,-3.00,-0.10,-0.00,0.00,-29
336,0,323,80,143,9.22,-1.56,-3.21,-0.10,0.01,-0.01,-29
320,0,336,80,151,9.16,-1.50,-3.12,-0.09,0.01,-0.00,-29
363,0,359,99,144,9.13,-1.48,-3.10,-0.10,0.02,-0.00,-29
363,0,362,89,155,9.26,-1.53,-3.00,-0.10,0.01,0.00,-29
366,299,339,90,169,9.21,-1.38,-3.10,-0.10,0.02,-0.01,-29
351,378,282,67,167,9.19,-1.53,-3.22,-0.10,0.02,-0.01,-29
368,435,321,52,169,9.29,-1.40,-3.14,-0.10,0.02,-0.01,-29
397,461,307,63,179,9.21,-1.46,-3.16,-0.10,-0.00,-0.02,-29
397,444,302,58,170,9.16,-1.45,-3.03,-0.11,0.02,0.00,-29
358,410,323,57,169,9.25,-1.42,-3.04,-0.10,0.03,-0.01,-29
400,404,320,62,160,9.18,-1.47,-3.04,-0.09,0.00,0.00,-29
388,418,321,64,179,9.19,-1.55,-3.09,-0.11,0.02,-0.00,-29
384,410,322,69,182,9.19,-1.42,-3.08,-0.10,0.04,0.00,-29
384,433,329,63,175,9.24,-1.56,-2.94,-0.09,0.01,0.00,-29
423,397,328,71,193,9.21,-1.48,-3.14,-0.09,-0.00,-0.01,-29
417,397,337,54,176,9.19,-1.56,-3.17,-0.09,0.00,0.00,-29
404,404,338,35,166,9.21,-1.56,-3.13,-0.10,0.02,0.00,-29
405,361,329,34,182,9.19,-1.52,-3.14,-0.10,0.01,-0.01,-29
395,354,323,66,198,9.34,-1.49,-2.79,-0.03,0.06,-0.03,-29
395,372,330,71,197,9.24,-1.63,-3.08,-0.02,0.12,-0.03,-29
384,371,314,49,182,9.18,-1.59,-3.16,0.05,-0.13,-0.11,-29
388,360,329,78,181,9.24,-1.64,-2.91,0.02,-0.03,-0.00,-29
378,366,336,46,182,9.11,-1.29,-3.48,-0.03,0.00,-0.09,-29
375,339,310,47,182,9.22,-1.29,-3.12,-0.03,0.10,-0.09,-29
371,340,320,51,185,9.24,-1.03,-2.90,0.02,-0.01,-0.05,-29
371,351,304,46,195,9.08,-1.62,-3.25,0.06,-0.05,-0.02,-29
350,361,317,43,190,9.13,-1.73,-3.37,0.03,-0.01,-0.04,-29
373,376,299,30,178,9.28,-1.41,-2.89,0.01,0.04,-0.09,-29
399,358,299,0,172,9.12,-1.46,-3.28,0.06,-0.05,-0.03,-29
383,286,342,2,179,9.18,-1.64,-3.25,-0.05,0.02,-0.04,-29
390,277,346,18,192,9.05,-1.63,-3.15,-0.17,0.04,0.00,-29
374,273,326,20,120,9.03,-1.62,-3.45,-0.24,0.01,0.06,-29
382,252,310,19,184,9.21,-1.49,-3.02,-0.34,0.05,0.11,-29
395,239,330,25,181,9.19,-1.44,-3.30,-0.32,0.02,0.11,-29
368,218,323,16,182,9.24,-1.50,-2.79,-0.20,0.10,0.04,-29
416,210,334,32,191,9.17,-1.15,-3.05,-0.05,-0.01,-0.02,-29
368,240,322,23,202,9.12,-1.49,-3.15,-0.08,-0.01,-0.01,-29
345,242,309,16,188,9.24,-1.62,-3.14,-0.08,0.05,-0.06,-29
318,206,272,14,176,9.05,-1.46,-3.45,-0.11,-0.01,-0.01,-29
338,198,272,22,185,9.33,-1.51,-2.81,-0.08,0.06,0.00,-29
331,207,261,13,178,9.24,-1.19,-2.98,-0.08,-0.02,-0.02,-29
334,229,271,9,172,9.11,-1.65,-3.18,-0.08,-0.02,0.04,-29
333,218,300,2,176,9.11,-1.56,-3.34,-0.10,-0.00,-0.03,-29
304,211,284,4,175,9.18,-1.42,-3.20,-0.10,0.04,-0.03,-29
273,176,282,16,178,9.42,-1.35,-3.01,-0.07,0.08,-0.02,-29
272,176,267,11,176,9.27,-1.37,-2.81,-0.03,0.01,-0.02,-29
255,176,282,5,186,9.12,-1.52,-3.17,-0.01,-0.12,-0.03,-29
279,176,266,3,178,9.01,-1.50,-3.73,-0.06,-0.05,-0.01,-29
322,162,279,11,190,9.14,-1.77,-3.37,-0.11,0.12,0.01,-29
306,177,256,0,181,9.29,-1.29,-3.08,-0.10,0.06,-0.02,-29
335,186,306,0,179,9.24,-1.38,-3.18,-0.07,0.01,-0.01,-29
302,192,308,0,178,9.19,-1.60,-2.96,-0.10,0.03,0.01,-29
336,199,309,11,197,9.19,-1.59,-3.18,-0.13,0.02,-0.01,-29
316,191,309,1,187,9.20,-1.38,-2.94,-0.12,0.04,-0.02,-29
319,186,328,11,186,9.24,-1.48,-3.05,-0.10,0.01,0.02,-29
327,193,355,2,199,9.19,-1.67,-3.01,-0.10,0.01,0.01,-29
315,209,277,0,182,9.20,-1.47,-3.06,-0.11,0.03,-0.00,-29
326,247,310,0,183,9.18,-1.55,-3.19,-0.15,0.01,0.01,-29
289,248,320,0,168,9.25,-1.39,-2.95,-0.15,0.04,0.03,-29
289,240,335,3,179,9.12,-1.56,-3.12,-0.16,-0.00,0.04,-29
283,240,337,5,176,9.04,-1.57,-3.45,-0.24,0.01,0.04,-29
277,247,339,14,183,9.17,-1.58,-3.13,-0.26,0.12,0.09,-29
293,256,325,16,188,9.30,-1.66,-2.76,-0.27,0.06,0.07,-29
277,246,326,0,169,9.31,-1.40,-2.98,-0.27,-0.00,0.05,-29
277,246,320,3,176,9.22,-1.33,-3.12,-0.27,0.03,0.08,-29
309,239,304,0,171,9.29,-1.50,-2.91,-0.25,0.06,0.11,-29
268,189,287,0,176,9.25,-1.34,-3.02,-0.23,0.00,0.03,-29
293,239,331,33,161,9.65,-1.66,-2.83,-0.12,0.12,-0.00,-29
279,229,291,85,103,9.38,-1.48,-2.51,-0.06,-0.04,-0.02,-29
271,252,267,139,85,9.15,-1.57,-3.00,0.01,-0.08,-0.05,-29
309,245,283,164,112,9.04,-1.52,-3.34,-0.03,-0.06,-0.03,-29
299,241,295,195,112,9.23,-1.63,-3.24,-0.06,0.03,-0.01,-29
304,250,272,182,103,9.33,-1.57,-2.84,-0.09,0.06,-0.01,-29
304,252,301,198,130,9.32,-1.57,-2.78,-0.04,0.05,-0.06,-29
273,237,314,131,116,9.23,-1.40,-2.95,0.03,-0.09,-0.07,-29
268,226,286,138,87,9.06,-1.64,-3.36,0.03,-0.06,-0.03,-29
279,225,304,201,102,9.19,-1.55,-2.92,-0.06,0.04,-0.04,-29
298,226,307,186,104,9.21,-1.52,-3.10,-0.08,-0.01,-0.02,-29
301,240,309,176,89,9.15,-1.53,-3.19,-0.10,-0.00,0.00,-29
285,235,325,205,117,9.18,-1.50,-3.00,-0.09,0.02,-0.01,-29
321,240,333,210,96,9.17,-1.51,-3.11,-0.10,0.01,-0.01,-29
295,253,322,182,101,9.21,-1.61,-3.04,-0.09,0.01,-0.00,-29
278,237,306,186,94,9.22,-1.58,-3.20,-0.11,0.02,-0.01,-29
302,234,320,141,91,9.26,-1.58,-3.12,-0.09,0.03,0.00,-29
308,240,314,201,96,9.20,-1.60,-3.16,-0.10,0.01,-0.01,-29
306,235,298,214,83,9.22,-1.55,-3.09,-0.10,0.00,-0.00,-29
310,226,304,219,83,9.18,-1.56,-3.21,-0.10,-0.00,-0.01,-29
310,224,286,243,126,9.19,-1.54,-3.11,-0.09,0.01,0.00,-29
301,222,307,205,135,9.19,-1.47,-3.06,-0.10,0.01,0.00,-29
333,225,331,180,141,9.22,-1.56,-3.10,-0.09,0.02,-0.01,-29
315,229,354,142,226,9.26,-1.61,-3.09,-0.11,0.03,-0.01,-29
306,240,360,167,222,9.22,-1.48,-3.11,-0.10,0.01,-0.01,-29
318,227,359,157,214,9.19,-1.54,-3.08,-0.10,0.02,-0.01,-29
330,219,363,141,212,9.20,-1.47,-3.13,-0.11,0.01,-0.01,-29
342,224,342,128,215,9.16,-1.49,-3.16,-0.10,0.02,-0.01,-29
326,235,332,116,215,9.24,-1.57,-3.04,-0.09,-0.00,-0.01,-29
338,230,367,127,236,9.18,-1.61,-3.11,-0.11,0.01,-0.00,-29
309,254,349,113,222,9.22,-1.59,-3.17,-0.11,0.02,-0.00,-29
310,229,326,118,226,9.17,-1.57,-3.14,-0.10,-0.00,-0.00,-29
323,215,346,107,233,9.22,-1.54,-3.10,-0.09,0.01,-0.00,-29
345,176,320,96,240,9.17,-1.55,-3.11,-0.10,0.04,0.01,-29
337,173,316,112,240,9.17,-1.57,-3.13,-0.10,0.00,-0.01,-29
362,176,327,98,225,9.16,-1.47,-3.17,-0.09,0.02,-0.01,-29
375,170,318,94,224,9.11,-1.60,-3.31,-0.11,0.00,0.01,-29
358,195,343,98,224,9.14,-1.59,-3.10,-0.10,0.02,0.00,-29
296,203,363,106,223,9.24,-1.61,-2.96,-0.09,0.02,0.01,-29
339,197,362,109,231,9.16,-1.70,-2.98,-0.09,0.01,-0.00,-29
306,202,358,112,225,9.15,-1.43,-3.26,-0.10,0.02,-0.01,-29
336,208,361,113,235,9.21,-1.64,-3.07,-0.09,0.01,-0.01,-29
305,205,335,97,234,9.20,-1.60,-3.05,-0.10,-0.00,-0.01,-29
301,211,354,80,242,9.20,-1.58,-3.17,-0.11,-0.00,-0.01,-29
293,203,415,96,258,9.12,-1.49,-3.16,-0.11,0.01,-0.01,-29
313,191,336,80,234,9.17,-1.49,-3.16,-0.09,-0.01,-0.01,-29
302,226,357,99,240,9.13,-1.60,-3.22,-0.11,0.01,-0.01,-29
320,193,365,97,247,9.17,-1.62,-3.17,-0.10,-0.01,-0.02,-29
306,189,354,99,258,9.08,-1.55,-3.30,-0.10,0.01,-0.01,-29
316,199,349,90,240,9.15,-1.66,-3.16,-0.09,0.03,0.00,-29
327,190,335,69,204,9.18,-1.60,-3.09,-0.09,-0.00,-0.01,-29
309,201,363,103,237,9.17,-1.59,-3.28,-0.10,0.02,-0.01,-29
349,208,368,92,240,9.13,-1.54,-3.20,-0.10,0.00,-0.01,-29
367,198,373,83,240,9.13,-1.50,-3.27,-0.10,0.02,-0.00,-29
336,206,385,112,239,9.12,-1.59,-3.19,-0.09,0.03,-0.01,-29
377,194,377,75,238,9.18,-1.60,-3.06,-0.10,-0.00,0.00,-29
377,173,368,94,246,9.11,-1.60,-3.16,-0.10,0.01,0.00,-29
338,148,336,107,227,9.21,-1.58,-3.18,-0.08,0.03,-0.01,-29
323,158,348,79,237,9.18,-1.59,-3.14,-0.10,0.02,-0.00,-29
336,142,315,80,226,9.17,-1.53,-3.07,-0.10,-0.01,-0.02,-29
325,139,301,77,240,9.12,-1.59,-3.27,-0.09,0.01,-0.02,-29
357,160,296,80,218,9.16,-1.60,-3.17,-0.11,0.01,-0.00,-29
350,139,349,129,242,9.19,-1.49,-3.17,-0.09,0.03,0.00,-29
333,138,337,125,240,9.18,-1.56,-3.13,-0.12,0.02,-0.00,-29
333,150,304,100,241,9.09,-1.76,-3.23,-0.10,-0.01,0.04,-29
365,132,298,135,243,9.14,-1.62,-3.13,-0.09,0.02,-0.01,-29
364,171,294,119,224,9.16,-1.66,-3.25,-0.09,0.01,-0.01,-29
374,161,276,139,218,9.09,-1.54,-3.27,-0.10,0.01,-0.01,-29
361,163,284,118,195,9.16,-1.53,-3.27,-0.09,0.05,0.01,-29
368,117,300,126,208,9.14,-1.65,-3.08,-0.09,0.03,0.01,-29
347,181,322,125,190,9.17,-1.68,-3.13,-0.09,0.03,0.01,-29
374,176,318,131,206,9.13,-1.68,-3.21,-0.10,0.01,-0.00,-29
351,206,299,134,208,9.19,-1.65,-3.09,-0.09,-0.01,-0.00,-29
368,192,288,107,192,9.07,-1.68,-3.21,-0.06,-0.01,-0.01,-29
369,191,305,147,229,8.99,-1.72,-3.15,-0.18,-0.02,0.07,-29
383,186,302,138,232,8.92,-1.47,-3.34,-0.07,0.07,0.11,-29
393,184,302,153,234,9.03,-1.44,-3.44,-0.04,0.11,0.01,-29
395,187,277,145,239,9.43,-1.95,-2.14,-0.08,-0.06,0.05,-29
389,189,254,130,230,9.03,-2.43,-3.12,-0.09,-0.23,0.05,-29
358,176,274,138,214,9.05,-2.12,-3.52,-0.03,-0.14,-0.00,-29
378,179,283,138,222,8.90,-1.90,-3.72,-0.08,0.01,0.04,-29
384,190,291,139,215,8.90,-2.06,-3.46,-0.07,0.09,0.02,-29
367,191,296,141,218,9.02,-2.27,-3.28,-0.10,0.07,-0.01,-29
351,191,303,152,228,9.11,-1.88,-3.11,-0.11,0.06,-0.03,-29
336,202,259,134,191,8.98,-2.35,-3.28,-0.09,0.02,0.01,-29
321,191,255,135,208,9.04,-2.07,-3.11,-0.10,-0.00,0.01,-29
329,198,263,114,209,9.05,-1.95,-3.22,-0.11,0.04,-0.00,-29
343,180,267,106,208,8.96,-2.11,-3.36,-0.09,0.01,-0.04,-29
365,165,261,91,228,9.04,-2.13,-3.32,-0.09,0.02,-0.01,-29
352,135,270,105,216,8.97,-2.07,-3.29,-0.11,0.04,-0.01,-29
387,161,274,98,224,9.09,-2.10,-3.24,-0.11,0.03,0.00,-29
371,141,275,79,221,9.02,-2.19,-3.13,-0.11,-0.01,-0.01,-29
352,143,270,79,214,8.93,-2.07,-3.33,-0.10,0.02,-0.05,-29
357,144,275,73,219,9.01,-1.87,-3.22,-0.10,0.08,0.01,-29
384,149,301,77,226,9.12,-2.18,-3.05,-0.12,0.04,0.02,-29
432,143,294,89,222,9.08,-2.05,-3.07,-0.11,-0.01,-0.01,-29
403,159,274,92,219,9.05,-2.02,-3.21,-0.10,-0.04,-0.00,-29
406,159,306,79,222,9.00,-2.14,-3.41,-0.10,0.01,-0.01,-29
388,160,281,97,226,9.07,-2.05,-3.10,-0.11,0.03,-0.01,-29
386,176,273,122,207,9.06,-1.92,-2.95,-0.10,-0.02,-0.01,-29
374,193,275,111,203,8.94,-2.03,-3.53,-0.07,-0.05,0.04,-29
386,176,276,126,211,8.82,-2.67,-3.58,-0.06,-0.00,-0.01,-29
368,138,261,112,218,8.96,-2.31,-3.37,-0.05,0.06,-0.12,-29
378,153,242,102,187,9.20,-1.43,-3.10,-0.08,0.12,-0.06,-29
337,174,251,104,203,9.31,-1.57,-2.64,-0.12,0.02,0.07,-29
340,191,304,155,210,9.11,-2.21,-3.01,-0.12,0.01,0.02,-29
351,195,313,146,204,9.12,-2.07,-3.19,-0.10,0.01,-0.02,-29
350,209,298,155,191,9.08,-2.05,-3.17,-0.10,0.03,-0.03,-29
351,215,295,138,183,9.08,-2.07,-3.15,-0.11,0.01,-0.00,-29
367,202,289,153,197,9.09,-2.09,-3.19,-0.09,0.01,-0.01,-29
380,211,284,141,240,9.10,-2.19,-3.05,-0.09,-0.01,0.01,-29
389,213,281,130,230,9.11,-2.16,-3.14,-0.09,0.02,-0.01,-29
360,193,252,122,228,9.14,-1.87,-2.96,-0.13,0.04,-0.04,-29
384,213,266,143,245,9.09,-2.30,-3.07,-0.10,-0.01,-0.01,-29
358,209,257,133,223,9.11,-2.11,-3.15,-0.10,0.02,-0.02,-29
359,205,240,124,225,9.19,-2.08,-2.95,-0.11,0.01,-0.01,-29
384,208,243,138,208,9.16,-2.00,-3.08,-0.10,0.00,-0.00,-29
347,234,267,97,205,9.14,-2.07,-3.02,-0.09,0.02,-0.00,-29
336,223,249,128,202,9.11,-1.97,-3.09,-0.10,0.01,-0.00,-29
352,203,233,106,237,9.13,-2.14,-3.10,-0.10,0.01,-0.02,-29
368,195,229,112,267,9.18,-2.01,-2.88,-0.09,-0.02,0.00,-29
415,214,211,118,273,9.12,-2.06,-3.09,-0.13,0.04,-0.04,-29
367,190,207,112,281,9.08,-2.22,-3.16,-0.08,-0.04,0.05,-29
351,206,209,116,276,8.88,-2.50,-3.27,-0.09,0.01,-0.02,-29
369,193,233,122,284,9.22,-1.82,-2.80,-0.11,0.04,0.00,-29
334,208,222,106,289,9.12,-2.09,-2.87,-0.09,-0.03,0.04,-29
367,228,211,105,295,8.97,-2.16,-3.26,-0.08,-0.02,0.00,-29
364,201,240,132,304,9.09,-2.19,-3.32,-0.08,0.03,-0.02,-29
370,205,244,111,295,9.17,-1.98,-3.07,-0.10,0.04,0.01,-29
350,184,235,112,306,9.10,-2.12,-2.87,-0.07,0.01,0.10,-29
350,197,240,122,304,9.28,-1.85,-2.93,-0.12,0.07,-0.07,-29
370,161,257,115,322,9.03,-2.04,-3.29,-0.10,-0.00,0.01,-29
327,164,256,115,302,9.13,-2.07,-3.22,-0.11,0.03,-0.01,-29
375,183,266,112,320,9.12,-2.04,-3.20,-0.09,0.01,-0.00,-29
380,176,256,112,307,9.09,-2.15,-3.26,-0.10,0.02,-0.00,-29
384,165,254,105,295,9.05,-1.99,-3.38,-0.10,0.02,-0.01,-29
368,160,252,112,319,9.02,-2.11,-3.18,-0.09,0.01,0.00,-29
342,177,261,86,304,9.05,-1.95,-3.16,-0.09,0.02,0.00,-29
379,175,268,122,299,9.12,-2.08,-3.24,-0.10,0.02,0.01,-29
427,168,279,133,313,9.04,-1.93,-3.20,-0.09,0.03,-0.00,-29
410,164,272,121,313,9.05,-2.06,-3.19,-0.10,0.01,-0.01,-29
396,166,272,93,318,9.12,-2.09,-3.20,-0.11,0.02,-0.01,-29
418,171,270,112,302,9.00,-2.11,-3.22,-0.12,-0.01,-0.02,-29
420,161,275,125,323,8.99,-2.13,-3.28,-0.10,0.01,-0.01,-29
398,161,264,104,326,9.02,-2.11,-3.34,-0.10,0.02,-0.01,-29
427,177,290,109,307,9.08,-2.10,-3.11,-0.09,0.02,-0.01,-29
413,163,277,112,331,9.08,-2.00,-3.24,-0.10,0.01,-0.01,-29
416,179,293,122,314,9.00,-2.15,-3.22,-0.10,0.01,-0.02,-29
387,170,267,103,316,9.05,-1.84,-3.29,-0.12,0.06,-0.04,-29
394,175,304,103,327,8.94,-2.25,-3.33,-0.09,-0.01,0.02,-29
415,175,282,96,322,9.07,-2.18,-3.20,-0.09,0.00,-0.01,-29
363,177,265,95,321,9.09,-2.23,-3.04,-0.10,-0.04,0.02,-29
402,189,265,83,302,9.03,-2.23,-3.40,-0.09,0.01,0.01,-29
405,186,271,86,322,9.07,-2.09,-3.22,-0.11,0.05,-0.01,-29
416,187,275,100,317,9.08,-2.13,-3.11,-0.10,0.00,0.02,-29
396,189,267,82,305,9.04,-2.03,-3.26,-0.11,0.02,0.00,-29
358,199,267,80,288,9.00,-2.01,-3.27,-0.10,0.03,-0.02,-29
400,191,291,90,320,9.13,-2.04,-3.20,-0.10,0.01,-0.01,-29
407,183,257,95,322,9.02,-2.09,-3.26,-0.09,0.01,-0.01,-29
311,185,240,80,306,9.04,-2.10,-3.18,-0.09,0.01,-0.01,-29
372,205,276,84,299,9.02,-2.12,-3.17,-0.10,0.02,-0.01,-29
382,199,262,86,295,9.07,-2.08,-3.17,-0.09,-0.01,-0.00,-29
432,208,239,87,300,9.06,-2.27,-3.22,-0.11,0.00,-0.01,-29
384,208,248,80,272,8.98,-2.01,-3.30,-0.10,0.01,-0.01,-29
388,208,228,76,291,9.01,-1.94,-3.25,-0.10,0.01,-0.01,-29
396,195,222,99,297,9.04,-2.06,-3.36,-0.10,0.03,-0.01,-29
400,196,245,89,286,9.04,-2.15,-3.23,-0.10,0.02,-0.00,-29
391,194,233,92,272,8.99,-2.11,-3.23,-0.10,0.00,-0.01,-29
400,186,228,91,275,8.97,-2.08,-3.26,-0.09,0.01,-0.03,-29
364,211,252,97,314,9.07,-2.24,-3.21,-0.10,-0.00,-0.00,-29
377,192,259,96,286,9.01,-2.29,-3.38,-0.11,0.02,0.01,-29
375,204,256,82,274,9.08,-1.93,-3.18,-0.10,0.01,0.03,-29
382,193,240,80,284,9.07,-1.97,-3.16,-0.11,0.02,0.01,-29
364,215,234,80,282,9.00,-2.35,-3.29,-0.10,0.00,-0.00,-29
368,195,266,81,280,9.07,-1.95,-3.12,-0.11,0.02,-0.02,-29
362,202,245,80,267,9.07,-2.37,-3.22,-0.12,0.01,-0.01,-29
373,143,242,97,304,9.09,-1.90,-3.23,-0.11,0.00,-0.03,-29
406,195,240,63,302,8.92,-2.43,-3.35,-0.10,0.01,0.03,-29
394,192,244,64,280,9.05,-1.96,-3.18,-0.11,0.03,-0.06,-29
368,200,250,57,275,9.09,-2.17,-3.26,-0.08,-0.01,0.05,-29
357,195,273,97,294,9.06,-2.27,-3.22,-0.10,0.02,-0.06,-29
347,206,270,71,270,9.01,-2.26,-3.22,-0.09,0.01,0.01,-29
390,190,240,66,302,9.04,-2.16,-3.29,-0.10,0.02,-0.02,-29
361,199,227,77,275,8.99,-2.10,-3.20,-0.10,0.02,0.00,-29
390,198,243,76,271,9.04,-2.01,-3.20,-0.10,0.02,-0.01,-29
373,182,263,81,276,8.99,-2.13,-3.24,-0.10,0.01,0.01,-29
337,187,261,78,275,9.06,-2.09,-3.36,-0.10,0.01,0.04,-29
353,190,251,74,273,9.04,-2.00,-3.12,-0.10,0.03,-0.03,-29
374,179,240,80,273,9.14,-1.74,-3.15,-0.10,0.02,-0.02,-29
385,175,215,80,251,9.03,-2.20,-3.47,-0.09,-0.02,0.09,-29
387,185,217,70,269,8.95,-2.33,-3.28,-0.10,0.04,-0.10,-29
343,210,240,71,246,9.02,-2.34,-3.17,-0.08,-0.03,0.10,-29
338,191,234,81,272,9.04,-2.20,-3.36,-0.10,0.04,-0.11,-29
355,192,225,80,259,9.05,-2.35,-3.09,-0.10,0.02,-0.06,-29
350,178,218,81,272,9.07,-1.79,-3.32,-0.11,-0.03,0.06,-29
350,177,224,73,262,9.13,-1.70,-3.03,-0.07,-0.03,0.08,-29
336,184,246,73,255,9.03,-1.52,-3.10,-0.11,0.04,0.03,-29
353,177,222,86,275,8.81,-3.31,-3.44,-0.12,0.03,-0.07,-29
320,184,204,61,260,9.10,-2.12,-3.29,-0.10,-0.03,0.22,-29
320,176,213,77,256,9.38,-0.55,-2.91,-0.10,0.01,0.08,-29
336,206,210,82,240,8.85,-3.07,-3.34,-0.09,-0.08,0.20,-29
320,208,184,78,258,9.12,-1.31,-3.09,-0.04,0.02,0.14,-29
367,193,191,107,272,8.95,-3.11,-3.22,-0.09,0.03,-0.07,-29
357,182,186,80,284,9.10,-1.18,-3.11,-0.12,0.01,-0.08,-29
346,190,236,95,267,8.89,-2.78,-3.36,-0.09,0.02,0.02,-29
353,182,271,95,272,9.12,-2.04,-3.23,-0.09,-0.01,0.04,-29
359,207,249,101,281,9.09,-2.04,-3.19,-0.08,0.02,0.01,-29
383,183,245,96,278,9.06,-2.06,-3.29,-0.10,-0.00,0.01,-29
368,190,250,79,269,9.00,-2.04,-3.25,-0.10,0.02,0.00,-29
366,179,250,91,281,9.02,-2.05,-3.13,-0.09,0.02,-0.00,-29
321,195,267,80,259,9.03,-2.07,-3.14,-0.09,0.01,-0.01,-29
240,148,317,102,266,9.16,-2.12,-2.75,-0.10,0.01,-0.02,-29
247,161,320,80,262,9.10,-2.08,-3.20,-0.10,-0.02,-0.02,-29
275,166,313,77,242,8.97,-2.43,-3.24,-0.09,-0.01,-0.02,-29
291,151,314,89,240,9.01,-1.99,-3.09,-0.12,0.07,-0.04,-29
278,144,284,84,243,9.06,-2.29,-3.16,-0.10,0.00,0.08,-29
293,149,303,103,256,9.04,-2.08,-3.11,-0.08,0.01,0.06,-29
270,163,311,89,234,9.04,-2.14,-3.16,-0.10,0.03,-0.06,-29
304,154,304,92,254,9.04,-2.39,-3.18,-0.11,0.04,-0.10,-29
240,153,301,87,237,8.98,-2.83,-3.25,-0.10,0.02,-0.05,-29
224,170,284,81,228,9.15,-1.62,-3.05,-0.11,0.01,-0.05,-29
246,157,304,81,224,9.11,-2.24,-2.99,-0.08,0.02,0.05,-29
280,155,309,112,224,9.08,-2.24,-3.07,-0.11,0.02,-0.04,-29
238,133,305,95,240,9.09,-1.99,-3.08,-0.10,-0.02,0.02,-29
235,151,288,86,258,9.02,-2.35,-3.22,-0.09,0.04,-0.05,-29
266,155,298,94,243,9.11,-1.79,-3.08,-0.10,-0.01,0.07,-29
284,147,287,115,256,8.93,-2.77,-3.29,-0.10,0.03,-0.06,-29
275,151,316,85,228,9.17,-2.11,-3.08,-0.08,-0.00,0.13,-29
279,158,314,99,247,8.99,-2.37,-3.21,-0.13,0.04,-0.14,-29
302,146,257,83,240,8.86,-3.30,-3.42,-0.11,0.08,-0.19,-29
298,146,271,80,226,9.25,-0.97,-2.93,-0.12,0.10,-0.10,-29
289,158,266,80,229,9.17,-2.27,-2.89,-0.08,-0.01,0.17,-29
301,166,301,86,225,9.20,-1.50,-3.04,-0.09,-0.05,-0.03,-29
326,186,290,92,236,9.04,-2.32,-3.16,-0.12,0.07,-0.06,-29
288,189,249,80,225,9.13,-2.29,-2.99,-0.10,-0.03,0.03,-29
319,158,278,112,240,9.07,-2.16,-3.23,-0.09,0.03,0.01,-29
353,160,282,112,247,9.12,-2.17,-3.05,-0.09,-0.00,-0.00,-29
439,160,283,101,253,9.10,-2.07,-3.13,-0.07,0.01,-0.02,-29
304,159,269,64,247,9.09,-2.11,-3.18,-0.09,0.01,-0.00,-29
341,176,272,80,261,9.10,-2.15,-3.07,-0.09,0.03,0.00,-29
333,167,269,87,223,9.11,-2.11,-3.20,-0.09,0.03,-0.00,-29
322,147,284,98,230,9.10,-2.13,-3.12,-0.10,0.04,-0.01,-29
349,156,272,83,234,9.05,-2.20,-3.03,-0.11,0.02,-0.00,-29
335,116,272,84,244,9.10,-1.97,-2.91,-0.10,-0.02,-0.01,-29
323,114,277,91,249,9.11,-2.26,-3.00,-0.11,-0.01,0.00,-29
339,138,265,97,238,9.12,-1.96,-3.02,-0.10,-0.01,-0.01,-29
350,142,297,99,251,9.12,-2.28,-3.11,-0.08,-0.01,-0.03,-29
369,146,285,90,244,9.07,-2.23,-3.23,-0.09,-0.01,0.05,-29
337,147,310,80,238,9.16,-1.98,-3.04,-0.10,0.03,-0.07,-29
363,135,277,80,258,9.11,-2.20,-3.15,-0.09,0.02,-0.07,-29
386,137,288,75,256,9.03,-1.99,-2.95,-0.08,0.01,0.02,-29
393,147,277,81,234,9.17,-2.37,-3.18,-0.02,-0.03,-0.04,-29
371,147,273,89,240,9.17,-2.13,-2.87,-0.09,0.04,0.01,-29
393,156,258,80,250,9.09,-2.17,-3.08,-0.10,0.00,-0.01,-29
410,138,272,99,267,9.06,-2.00,-2.97,-0.09,-0.02,-0.02,-29
402,135,279,70,272,9.10,-2.11,-3.36,-0.08,-0.00,-0.00,-29
384,142,288,56,258,9.12,-2.12,-3.13,-0.09,0.05,-0.01,-29
412,141,283,80,244,9.15,-2.14,-3.05,-0.12,0.03,0.01,-29
400,148,275,70,225,9.13,-2.10,-3.11,-0.10,0.04,-0.01,-29
401,147,300,69,227,9.08,-2.15,-3.05,-0.09,0.01,0.01,-29
400,138,288,69,240,9.01,-2.09,-3.21,-0.09,0.01,0.01,-29
363,146,292,55,228,9.08,-2.19,-2.94,-0.10,0.05,0.01,-29
404,144,281,80,193,9.01,-2.14,-3.17,-0.09,0.05,-0.00,-29
405,148,278,69,238,9.18,-2.04,-2.77,-0.08,0.02,0.01,-29
387,144,279,66,257,9.04,-2.45,-3.27,-0.11,-0.02,0.00,-29
429,144,289,79,254,9.16,-2.04,-2.71,-0.09,0.03,-0.02,-29
415,146,281,61,238,9.19,-1.98,-2.80,-0.09,0.05,-0.03,-29
355,144,279,54,235,9.28,-1.84,-2.99,0.00,0.06,-0.03,-29
324,144,272,70,232,9.09,-2.13,-2.90,-0.10,-0.06,-0.00,-29
275,128,270,81,245,8.77,-2.19,-3.38,-0.10,0.01,-0.02,-29
315,113,254,60,233,9.03,-2.18,-3.17,-0.10,-0.04,0.01,-29
322,144,279,69,243,9.00,-2.15,-2.96,-0.12,-0.03,-0.01,-29
315,159,283,62,234,9.18,-2.15,-3.22,-0.08,0.06,-0.00,-29
319,149,284,49,239,9.05,-2.03,-2.79,-0.11,-0.04,-0.00,-29
347,144,272,60,249,9.14,-1.96,-2.69,-0.12,-0.04,0.01,-29
368,119,259,67,243,9.22,-2.05,-2.80,-0.11,0.02,0.02,-29
357,142,265,52,237,9.09,-2.25,-3.24,-0.09,-0.04,-0.02,-29
352,134,275,71,240,9.11,-2.04,-3.16,-0.07,0.01,-0.01,-29
369,129,258,49,251,9.09,-2.12,-3.26,-0.09,0.04,0.01,-29
378,118,240,51,241,9.11,-2.15,-2.90,-0.10,0.01,-0.01,-29
341,115,271,48,245,9.05,-2.23,-3.27,-0.08,-0.00,-0.01,-29
331,112,273,57,242,9.08,-2.05,-3.13,-0.10,0.02,-0.01,-29
321,112,283,16,240,9.10,-2.28,-3.13,-0.09,0.02,0.00,-29
374,124,278,43,250,9.12,-2.17,-3.05,-0.11,0.03,0.01,-29
399,128,294,27,240,9.13,-2.22,-3.01,-0.09,0.02,-0.01,-29
353,140,281,23,240,9.06,-2.20,-3.14,-0.10,0.01,0.00,-29
369,133,298,48,261,9.13,-2.15,-3.09,-0.11,0.03,-0.01,-29
382,122,322,38,251,9.07,-2.18,-3.05,-0.11,0.00,-0.01,-29
381,135,317,16,250,9.08,-2.18,-3.07,-0.10,0.01,-0.01,-29
464,134,336,0,253,9.11,-2.10,-3.14,-0.10,-0.00,-0.01,-29
425,125,336,0,238,9.04,-2.17,-3.06,-0.09,0.03,-0.00,-29
391,127,307,0,240,9.11,-2.13,-3.01,-0.10,0.03,-0.01,-29
384,139,303,0,235,9.13,-2.13,-3.08,-0.09,0.00,0.00,-29
401,112,293,0,254,8.98,-2.08,-3.15,-0.10,0.01,-0.00,-29
398,128,287,0,253,9.06,-2.11,-3.18,-0.10,0.03,-0.01,-29
383,128,287,8,267,9.08,-2.10,-3.03,-0.10,0.01,-0.01,-29
368,115,282,0,241,9.08,-2.08,-3.23,-0.10,0.03,-0.01,-29
368,102,280,3,213,9.12,-2.09,-3.01,-0.11,0.03,0.01,-29
364,112,272,0,253,9.15,-2.21,-3.00,-0.09,0.01,-0.02,-29
359,107,272,4,251,9.06,-2.12,-3.13,-0.09,0.01,-0.00,-29
385,119,274,0,242,9.05,-2.18,-3.09,-0.09,0.02,0.00,-29
387,112,276,3,247,9.08,-2.17,-3.08,-0.09,0.01,0.01,-29
367,112,280,0,235,9.08,-2.24,-3.10,-0.10,0.01,0.00,-29
396,110,259,0,238,9.04,-2.14,-3.23,-0.10,0.02,-0.00,-29
395,112,272,6,252,9.06,-2.22,-3.13,-0.10,0.02,0.01,-29
430,136,258,0,210,9.10,-2.11,-3.09,-0.08,-0.01,-0.01,-29
433,129,248,4,235,9.07,-2.14,-3.05,-0.08,0.07,-0.00,-29
441,144,270,23,245,9.11,-2.13,-2.91,-0.10,-0.03,-0.02,-29
453,121,268,7,234,9.04,-2.09,-3.03,-0.09,-0.02,0.01,-29
443,142,249,0,222,8.98,-2.35,-3.30,-0.09,0.06,-0.01,-29
443,116,240,0,237,9.10,-1.97,-2.89,-0.10,-0.02,-0.01,-29
438,132,272,0,228,8.96,-2.33,-3.40,-0.10,0.04,0.01,-29
422,138,317,0,237,9.17,-1.98,-2.73,-0.12,-0.02,-0.03,-29
420,138,274,0,240,8.99,-2.16,-3.58,-0.09,-0.02,0.01,-29
421,125,256,0,240,8.99,-2.13,-3.02,-0.07,0.06,0.01,-29
426,126,273,11,251,8.91,-2.59,-3.25,-0.10,-0.04,-0.03,-29
459,144,238,1,230,9.23,-1.65,-2.77,-0.09,0.06,-0.01,-29
432,146,282,0,221,9.10,-2.14,-2.94,-0.09,0.00,-0.04,-29
417,162,288,0,210,9.06,-2.14,-2.89,-0.09,0.07,-0.03,-29
418,160,289,0,214,9.04,-2.39,-3.35,-0.12,0.01,0.01,-29
412,157,258,0,212,9.19,-2.01,-3.06,-0.11,0.11,-0.03,-29
381,147,272,7,231,9.08,-2.01,-3.25,-0.09,0.05,-0.02,-29
372,133,274,16,240,9.03,-2.23,-3.04,-0.09,0.02,-0.00,-29
371,122,252,18,240,9.10,-2.20,-3.17,-0.10,0.03,0.00,-29
352,160,250,0,222,9.09,-2.21,-3.14,-0.11,0.01,-0.01,-29
347,146,285,0,240,9.07,-2.09,-3.11,-0.10,0.02,-0.01,-29
327,164,272,0,230,9.06,-2.18,-3.05,-0.10,0.01,-0.00,-29
357,162,293,0,239,9.05,-2.12,-3.05,-0.11,0.02,0.00,-29
365,143,294,0,234,9.07,-2.14,-3.27,-0.10,0.04,-0.01,-29
349,158,278,0,226,9.17,-2.17,-3.13,-0.08,0.00,-0.01,-29
320,169,432,8,228,9.28,-2.22,-3.04,-0.11,0.02,0.01,-29
345,131,363,181,237,9.04,-2.16,-3.24,-0.12,0.02,-0.00,-29
310,144,336,220,192,9.05,-2.08,-2.95,-0.11,0.03,-0.00,-29
315,169,371,215,202,9.09,-2.14,-3.06,-0.11,0.01,0.00,-29
323,163,363,243,150,9.10,-2.06,-3.15,-0.10,0.02,0.00,-29
329,171,380,253,144,9.12,-2.13,-3.00,-0.10,0.01,-0.00,-29
320,151,384,249,164,9.05,-2.10,-3.17,-0.10,0.01,-0.00,-29
338,154,387,276,155,9.06,-2.17,-3.15,-0.09,0.02,0.00,-29
329,147,398,272,161,9.11,-2.17,-3.01,-0.10,0.01,0.00,-29
321,154,426,285,182,9.07,-2.16,-3.16,-0.10,0.02,-0.02,-29
313,164,386,269,166,9.04,-2.14,-3.13,-0.10,0.01,-0.01,-29
297,166,379,230,151,9.13,-2.10,-3.15,-0.10,0.03,-0.02,-29
288,166,420,269,195,9.05,-2.15,-3.14,-0.10,-0.00,-0.01,-29
305,149,403,279,199,9.11,-2.01,-3.06,-0.10,0.02,-0.01,-29
289,134,401,282,187,9.10,-2.06,-3.07,-0.09,0.02,-0.00,-29
327,166,415,263,214,9.08,-2.11,-3.04,-0.10,0.01,-0.01,-29
307,164,391,250,206,9.02,-2.14,-3.17,-0.09,0.02,-0.01,-29
304,176,385,223,197,9.08,-2.09,-3.08,-0.10,0.02,-0.01,-29
312,166,393,228,189,9.10,-2.14,-3.10,-0.11,0.02,-0.00,-29
310,161,399,210,181,9.12,-2.04,-3.02,-0.10,0.02,0.00,-29
299,160,383,226,187,9.03,-2.09,-3.15,-0.10,0.01,-0.01,-29
301,153,379,226,180,9.05,-2.04,-3.08,-0.12,0.03,-0.01,-29
289,173,385,240,192,9.06,-2.18,-3.07,-0.11,0.05,-0.01,-29
305,164,390,255,196,9.22,-2.14,-2.79,-0.10,0.04,0.01,-29
313,176,405,253,198,9.10,-2.13,-2.92,-0.10,-0.02,0.02,-29
304,151,400,274,182,8.98,-2.14,-3.18,-0.11,0.02,0.04,-29
304,151,400,256,179,9.16,-2.08,-3.00,-0.09,0.07,0.04,-29
291,166,337,254,195,9.40,-2.02,-2.52,-0.16,0.05,0.09,-29
302,144,381,257,194,9.34,-2.14,-2.34,-0.21,-0.15,0.34,-29
305,164,379,263,201,8.55,-2.43,-2.82,-0.19,-0.27,0.38,-29
296,160,385,271,206,8.63,-3.14,-4.16,-0.42,-0.29,0.44,-29
291,179,432,256,193,8.22,-3.34,-4.36,-0.48,-0.18,0.37,-29
242,192,432,258,189,8.07,-3.05,-4.55,-0.20,-0.08,0.01,-29
222,208,446,272,198,7.61,-3.22,-4.56,-0.15,-0.02,-0.09,-29
211,191,432,242,189,7.35,-3.54,-4.76,-0.03,0.06,-0.10,-29
215,194,445,240,189,7.49,-3.48,-4.81,0.00,0.07,-0.11,-29
