Thumb,Index,Middle,Ring,Pinky,AccelX,AccelY,AccelZ,GyroX,GyroY,GyroZ,Letter
0,0,0,0,0,-5.74,-0.72,-6.69,-0.09,0.06,-0.03,S
0,0,0,0,0,-5.58,-0.81,-6.67,-0.06,0.02,-0.03,S
0,0,0,0,0,-6.10,-0.56,-6.65,-0.06,-0.06,0.02,S
0,0,0,0,0,-5.86,-0.77,-6.64,-0.04,-0.01,-0.04,S
0,0,0,0,0,-5.84,-0.85,-6.61,-0.15,0.08,-0.01,S
0,0,0,0,0,-5.83,-0.63,-6.58,-0.07,-0.05,-0.01,S
0,0,0,0,0,-5.90,-0.82,-6.65,-0.10,0.02,-0.01,S
0,0,0,0,0,-5.88,-0.80,-6.56,-0.10,0.03,-0.01,S
0,0,0,0,0,-5.89,-0.77,-6.73,-0.11,0.02,-0.00,S
0,0,0,0,0,-5.85,-0.70,-6.60,-0.11,0.02,-0.00,S
0,0,0,0,0,-5.86,-0.79,-6.65,-0.11,0.02,0.00,S
0,0,0,0,0,-6.19,-0.60,-6.90,-0.11,0.14,0.03,S
0,0,0,0,0,-5.87,-0.57,-6.77,-0.15,0.03,0.05,S
0,0,0,0,0,-5.78,-0.66,-6.77,-0.11,0.02,-0.00,S
0,0,0,0,0,-5.70,-0.60,-6.66,-0.09,0.07,-0.02,S
0,0,0,0,0,-5.66,-0.61,-6.51,-0.08,0.10,-0.04,S
0,0,0,0,0,-5.82,-0.69,-6.84,-0.04,-0.00,-0.04,S
0,0,0,0,0,-5.71,-0.78,-6.70,-0.06,-0.00,-0.02,S
0,0,0,0,0,-5.73,-0.68,-6.82,-0.03,0.04,-0.02,S
0,0,0,0,0,-5.71,-0.70,-6.85,-0.02,0.09,-0.04,S
0,0,0,0,0,-5.63,-1.17,-6.69,-0.08,0.07,-0.00,S
0,0,0,0,0,-5.65,-0.94,-7.06,-0.15,0.08,0.04,S
0,0,0,0,0,-5.65,-0.67,-7.04,-0.11,0.02,0.02,S
0,0,0,0,0,-5.65,-0.66,-6.82,-0.06,0.02,0.01,S
0,0,0,0,0,-5.74,-0.92,-6.84,-0.01,0.22,0.03,S
0,0,0,0,0,-5.43,-0.76,-6.85,-0.13,0.01,-0.02,S
0,0,0,0,0,-5.40,-0.79,-7.01,-0.01,0.06,0.06,S
0,0,0,0,0,-5.60,-0.88,-6.86,-0.08,0.10,0.07,S
0,0,0,0,0,-6.84,-1.04,-7.82,0.21,0.37,-0.11,S
0,0,0,0,0,-5.51,-0.11,-7.70,0.32,1.36,-0.71,S
0,11,0,0,0,-1.89,-2.03,-6.64,0.35,0.42,-0.77,S
0,0,0,0,0,-3.01,-2.89,-8.86,-0.22,1.05,-0.38,S
0,849,0,0,0,-1.04,-3.34,-8.67,0.92,2.66,0.11,S
0,1312,0,0,0,1.47,-3.88,-7.73,0.61,1.04,0.29,S
0,1395,0,0,0,1.32,-4.55,-7.26,-0.06,0.38,0.01,S
0,1562,23,0,0,1.36,-4.58,-7.91,-0.11,0.19,-0.03,S
0,1575,94,0,0,1.52,-4.82,-7.81,-0.13,0.02,0.05,S
0,1885,159,0,0,1.44,-5.09,-7.57,-0.02,-0.02,-0.02,S
0,1953,130,0,0,1.47,-4.40,-7.94,-0.06,-0.04,-0.02,S
29,2097,113,0,0,1.19,-4.79,-7.26,-0.07,-0.01,-0.06,S
135,2208,151,0,0,1.41,-4.66,-7.79,-0.01,0.12,-0.05,S
110,2285,144,0,0,1.58,-4.85,-7.64,-0.07,0.04,-0.03,S
186,2325,163,0,0,1.34,-5.04,-7.78,0.01,-0.09,-0.12,S
272,2319,262,0,0,1.51,-4.72,-7.67,-0.02,-0.15,-0.12,S
437,2282,287,0,0,1.87,-4.47,-7.56,-0.01,-0.16,-0.14,S
436,2317,292,0,0,1.51,-4.82,-7.35,-0.02,-0.08,0.01,S
589,2382,321,0,0,1.06,-5.36,-6.67,0.33,0.04,-0.07,S
688,2427,282,0,0,1.41,-5.37,-6.53,-0.04,0.03,0.05,S
755,2379,530,0,0,1.60,-5.28,-7.25,0.07,0.03,0.04,S
0,2608,897,0,0,1.32,-5.46,-7.69,-0.33,0.14,0.07,S
0,2278,1476,0,0,1.03,-4.73,-8.11,-0.32,-0.20,0.10,S
0,2351,1424,0,0,0.97,-4.79,-7.42,-0.21,-0.08,0.11,S
0,2390,1279,0,0,0.82,-4.68,-7.97,-0.07,-0.23,0.04,S
0,0,0,0,0,-6.23,-3.52,-8.62,-0.36,-0.23,-0.05,S
0,0,0,0,0,-5.43,-2.12,-8.15,-0.04,-1.19,0.28,S
0,0,0,0,0,-4.74,-1.27,-7.16,-0.12,0.03,-0.02,S
1641,0,0,0,0,-5.76,-1.43,-8.43,-0.01,0.16,-0.51,S
879,0,0,0,0,-4.96,-0.02,-7.46,0.71,0.73,-0.44,S
131,0,0,0,0,-2.04,-3.27,-7.05,0.25,-0.09,-0.04,S
551,0,0,0,0,-2.60,-4.44,-7.53,0.62,0.41,-0.47,S
1328,0,0,0,0,-1.29,-5.00,-7.33,0.31,0.23,-0.28,S
1456,0,0,0,0,-1.36,-5.27,-7.58,0.18,0.15,-0.18,S
1616,0,0,0,0,-1.27,-5.54,-6.95,-0.06,0.19,-0.16,S
1757,0,0,0,0,-1.01,-5.41,-7.33,-0.08,0.17,-0.20,S
1867,0,0,0,0,-0.37,-5.54,-7.01,0.03,0.45,-0.22,S
2256,0,0,0,0,-0.23,-6.01,-7.01,0.17,0.22,-0.15,S
2224,0,0,0,0,-0.04,-5.93,-6.78,-0.18,-0.02,-0.14,S
2437,0,0,0,0,-0.25,-5.86,-7.56,-0.22,-0.08,-0.04,S
2631,0,0,0,0,-0.07,-5.68,-7.61,0.22,0.07,-0.11,S
3408,0,0,0,0,-0.81,-5.73,-8.23,0.22,0.15,-0.20,S
3281,0,0,0,0,-0.45,-5.32,-6.63,-0.24,-0.07,-0.05,S
2807,0,0,0,0,-0.35,-4.70,-6.72,-0.76,-0.83,0.25,S
2758,0,0,0,0,-1.53,-4.58,-7.81,-0.24,-0.15,0.04,S
2650,0,0,0,0,-1.44,-5.04,-7.21,-0.13,0.03,0.05,S
2719,0,0,0,0,-1.47,-4.77,-7.50,-0.08,0.08,0.07,S
2864,0,0,0,0,-1.46,-4.19,-7.58,-0.21,0.08,0.23,S
3102,0,0,0,0,-1.56,-4.41,-8.08,-0.15,0.14,0.17,S
3294,0,0,0,0,-1.37,-4.41,-7.56,-0.11,0.13,0.13,S
3390,0,0,0,0,-1.59,-4.47,-7.68,-0.08,0.03,-0.03,S
3246,0,0,0,0,-1.52,-4.42,-7.73,-0.18,-0.06,-0.00,S
2085,0,0,0,0,-0.74,-4.40,-7.39,0.15,0.06,-0.20,S
0,0,0,0,0,-2.30,-4.39,-7.33,-0.56,-0.00,0.43,S
0,0,0,0,0,-4.54,-3.13,-10.25,0.36,0.75,0.12,S
0,0,0,0,0,-2.97,-3.46,-7.78,0.11,-0.09,0.03,S
0,0,0,0,0,-2.65,-3.27,-7.74,-0.74,-0.71,0.07,S
0,0,0,0,0,-2.16,-2.51,-7.40,-0.81,-0.84,-0.07,S
0,0,0,0,0,-2.48,-1.83,-8.13,-0.35,-0.18,0.13,S
0,0,0,0,0,-3.24,-2.67,-8.01,-0.02,0.14,0.19,S
1243,0,0,0,0,-2.67,-2.59,-7.93,-0.23,-0.12,-0.09,S
1327,0,0,0,0,-2.53,-2.64,-8.21,-0.02,0.04,-0.02,S
1633,0,0,0,0,-2.54,-2.68,-8.04,-0.03,0.19,-0.01,S
1103,0,0,0,0,-2.80,-3.48,-8.92,0.05,0.18,-0.27,S
48,0,0,0,0,0.14,-2.45,-8.34,-0.79,-1.53,-0.12,S
0,0,0,0,0,-5.35,-2.08,-9.36,0.07,0.26,-0.15,S
0,0,0,0,0,-4.51,-2.04,-8.02,-0.15,-0.12,0.05,S
0,0,0,0,0,-4.00,-2.00,-7.58,-0.11,-0.04,-0.01,S
0,0,0,0,0,-4.01,-2.15,-7.84,-0.11,-0.01,0.01,S
0,0,0,0,0,-4.38,-1.98,-7.91,-0.14,-0.12,0.05,S
0,0,0,0,0,-4.30,-1.93,-7.03,-0.29,-0.37,0.01,S
0,0,0,0,0,-4.77,-2.12,-7.37,-0.33,-0.39,-0.32,S
0,0,583,0,0,-6.04,-2.17,-6.96,-0.09,-0.29,-0.10,S
0,0,1733,0,0,-4.92,-2.33,-7.05,-0.18,0.10,0.02,S
0,0,2000,0,0,-5.02,-1.80,-7.38,-0.07,0.36,0.01,S
0,0,2128,0,0,-4.68,-1.72,-7.58,-0.09,0.10,-0.04,S
0,0,2381,0,0,-4.34,-1.78,-7.60,-0.13,0.13,-0.02,S
0,0,2402,0,0,-4.37,-1.69,-7.43,-0.11,0.02,-0.01,S
0,0,2391,0,0,-4.35,-1.72,-7.57,-0.09,0.03,-0.02,S
0,0,2467,0,0,-4.23,-1.58,-7.33,-0.09,0.04,-0.02,S
0,0,2512,0,0,-4.31,-1.70,-7.56,-0.10,-0.00,-0.00,S
0,0,2492,0,0,-4.36,-1.73,-7.69,-0.07,-0.00,0.01,S
0,0,2656,0,0,-4.57,-1.76,-7.42,-0.07,-0.10,0.00,S
0,0,2678,0,0,-4.56,-1.84,-7.44,-0.10,0.02,-0.01,S
0,0,2629,0,0,-4.37,-1.76,-7.26,-0.11,0.00,-0.02,S
0,0,2653,0,0,-4.61,-1.80,-7.54,-0.11,0.02,-0.01,S
0,0,1065,0,0,-4.10,-1.58,-7.23,0.03,0.74,-0.22,S
0,0,678,0,0,-0.25,-1.19,-3.92,0.08,-0.63,0.04,S
0,0,0,0,0,-9.33,-3.11,-7.17,-0.29,-2.37,0.80,S
0,0,0,0,0,-4.94,-2.11,-7.80,0.05,-0.16,0.13,S
0,0,0,0,0,-4.61,-1.85,-6.18,-0.07,0.19,-0.12,S
0,0,0,0,0,-5.23,-1.84,-7.02,0.07,-0.35,0.08,S
0,0,0,0,0,-5.46,-1.56,-6.89,-0.12,-0.05,0.02,S
0,0,0,0,0,-5.39,-1.73,-6.87,-0.30,0.32,-0.03,S
0,0,0,0,0,-5.36,-1.24,-6.47,0.31,-0.33,0.18,S
0,0,0,0,0,-5.80,-1.96,-6.81,-0.16,0.05,-0.03,S
0,0,0,0,0,-5.68,-1.81,-6.76,-0.12,-0.16,0.01,S
0,0,0,0,0,-5.55,-1.64,-6.74,-0.14,0.04,-0.01,S
0,0,0,0,0,-5.99,-1.75,-6.63,-0.17,-0.01,-0.00,S
0,0,0,0,0,-5.65,-1.74,-6.67,-0.08,-0.01,-0.00,S
0,0,0,334,0,-5.77,-1.69,-6.59,-0.14,0.05,-0.03,S
0,0,0,602,0,-5.77,-1.90,-6.69,-0.12,0.02,-0.01,S
0,0,0,866,0,-5.92,-1.92,-6.75,-0.06,-0.06,0.00,S
0,0,0,892,0,-5.85,-1.66,-6.56,-0.03,-0.07,-0.00,S
0,0,0,1046,0,-5.68,-1.80,-6.42,0.03,-0.14,-0.00,S
0,0,0,1047,55,-5.77,-1.61,-6.27,-0.08,-0.01,-0.03,S
0,0,0,1328,239,-6.00,-1.79,-6.50,-0.09,-0.02,-0.02,S
0,0,0,1407,274,-6.18,-1.98,-6.42,-0.05,-0.12,0.00,S
0,0,0,1565,366,-6.31,-1.93,-6.35,-0.10,-0.09,0.00,S
0,0,0,1602,475,-6.22,-1.95,-6.21,-0.14,0.08,-0.02,S
0,0,0,1485,338,-6.30,-1.81,-6.20,-0.08,-0.09,0.03,S
0,0,0,1628,342,-6.22,-1.87,-6.22,-0.05,-0.02,-0.01,S
0,0,0,1502,365,-6.16,-1.83,-6.20,-0.10,0.06,-0.02,S
0,0,0,0,0,-5.43,-1.37,-6.94,-0.09,-0.06,0.05,S
0,0,0,0,0,-5.72,-1.43,-6.47,-0.13,-0.02,0.05,S
0,0,0,0,0,-6.15,-1.05,-7.15,-0.18,0.15,0.01,S
0,0,0,0,235,-6.00,-1.14,-6.07,-0.06,-0.01,-0.03,S
0,0,0,0,128,-6.41,-1.48,-6.69,-0.12,0.02,0.00,S
0,0,0,0,0,-6.56,-1.40,-6.80,-0.27,0.15,0.02,S
0,0,0,0,1697,-5.96,-1.15,-6.87,0.05,0.10,0.00,S
0,0,0,0,2320,-5.78,-1.15,-6.39,-0.15,-0.15,-0.01,S
0,0,0,0,2587,-5.94,-1.18,-6.56,-0.07,-0.16,-0.00,S
0,0,0,0,2864,-6.05,-1.01,-6.28,-0.05,-0.24,-0.04,S
0,0,0,0,2907,-6.13,-1.19,-6.35,-0.08,-0.10,-0.00,S
0,0,0,0,2832,-6.29,-1.20,-6.27,-0.10,-0.05,-0.01,S
0,0,0,0,2586,-6.11,-1.23,-6.03,-0.10,0.01,-0.02,S
0,0,0,0,2337,-6.12,-1.08,-6.09,-0.11,0.03,-0.01,S
0,0,0,0,2571,-6.82,-0.38,-7.56,-0.77,0.65,0.08,S
0,0,0,0,2112,-4.56,0.37,-5.42,0.13,0.57,-0.36,S
0,0,0,0,1085,-6.38,-1.34,-8.07,-0.09,1.38,-0.07,S
0,0,0,0,1034,-0.47,0.59,-8.91,0.05,4.37,-0.30,S
0,0,0,0,2185,7.34,0.47,-8.16,-0.38,2.95,-0.52,S
0,0,0,0,1765,6.96,-0.54,-3.88,2.01,0.46,0.25,S
0,0,0,244,1922,8.76,1.49,-7.12,-1.16,-0.32,0.42,S
501,0,0,0,1786,8.24,-3.24,-5.94,-0.00,0.75,0.27,S
761,0,0,0,1591,4.03,-2.29,-1.50,1.24,-0.72,0.66,S
0,0,0,0,953,10.23,8.98,-1.44,-4.37,-4.37,2.77,S
0,0,0,0,27,4.70,3.15,-3.15,-0.03,0.25,0.35,S
0,0,0,0,0,4.46,1.22,-8.97,-0.34,0.05,-0.32,S
0,0,0,0,0,4.28,1.24,-8.16,-0.06,-0.04,0.12,S
0,0,0,0,0,4.54,1.81,-7.20,-0.52,0.60,-0.05,S
0,0,0,0,0,4.91,0.74,-7.35,-0.74,0.81,-0.95,S
0,0,0,0,0,5.32,1.01,-7.59,-0.17,-0.26,-0.00,S
0,0,0,0,0,4.16,1.36,-7.44,-0.25,0.13,-0.05,S
0,0,0,0,0,4.20,1.37,-7.79,-0.13,0.09,-0.02,S
0,0,0,0,0,4.24,1.64,-7.93,-0.11,0.05,-0.02,S
0,0,0,0,0,4.24,1.62,-7.96,-0.10,0.05,-0.00,S
0,0,0,0,0,4.15,1.64,-7.90,-0.11,0.03,-0.02,S
0,0,0,0,0,4.33,1.63,-7.92,-0.08,0.03,-0.02,S
0,0,0,0,0,4.26,1.72,-7.87,-0.10,0.02,-0.01,S
0,0,0,0,0,4.20,1.54,-7.96,-0.09,0.01,0.00,S
0,0,0,0,0,4.24,1.59,-7.91,-0.10,0.02,-0.01,S
0,0,0,0,0,4.29,1.69,-7.95,-0.10,0.02,-0.01,S
0,0,0,0,0,4.21,1.58,-7.85,-0.10,0.02,-0.01,S
0,0,0,0,0,4.25,1.61,-7.90,-0.10,0.02,-0.01,S
0,0,0,0,0,4.39,1.65,-7.90,-0.10,0.03,0.02,S
0,0,0,0,0,4.09,1.38,-7.91,-0.10,-0.00,-0.00,S
0,0,0,0,0,4.21,1.47,-7.94,-0.11,0.02,-0.05,S
0,0,0,0,0,4.31,1.75,-7.86,-0.10,0.03,-0.07,S
0,0,0,0,0,4.31,1.82,-7.75,-0.13,-0.00,-0.02,S
0,0,0,0,0,4.32,1.71,-7.85,-0.10,0.01,0.03,S
0,0,0,0,0,3.99,1.91,-8.02,-0.10,0.02,-0.04,S
0,0,0,0,0,4.38,1.96,-7.92,-0.11,0.03,0.01,S
0,0,0,0,0,4.19,1.49,-7.89,-0.12,-0.01,0.03,S
0,0,0,0,0,4.28,1.60,-7.94,-0.10,-0.00,0.02,S
0,0,0,0,0,4.16,1.70,-8.03,-0.08,-0.01,0.02,S
0,0,0,0,0,4.17,1.63,-7.90,-0.10,0.02,-0.06,S
0,0,0,0,0,4.34,1.77,-7.91,-0.09,0.03,-0.02,S
0,0,0,0,0,4.33,1.61,-7.78,-0.08,0.02,-0.02,S
0,0,0,0,0,3.89,1.78,-8.08,-0.12,0.05,-0.01,S
0,0,0,0,0,4.24,1.70,-7.81,-0.11,0.13,-0.00,S
0,0,0,0,0,4.12,1.79,-8.06,-0.09,-0.00,-0.01,S
0,0,0,0,0,4.16,1.84,-7.90,-0.11,0.04,-0.00,S
0,0,0,0,0,4.36,1.66,-7.86,-0.12,-0.02,0.00,S
0,0,0,0,0,4.24,1.78,-7.92,-0.09,0.04,-0.02,S
0,0,0,0,0,4.17,1.83,-8.06,-0.09,0.05,-0.00,S
0,0,0,0,0,4.34,1.71,-7.93,-0.09,0.01,-0.02,S
0,0,0,0,0,4.40,1.71,-7.79,-0.12,0.02,-0.01,S
0,0,0,0,0,4.35,1.71,-7.83,-0.10,0.02,-0.01,S
0,0,0,0,0,4.38,1.75,-7.78,-0.07,0.02,-0.01,S
